Folder: scimap-tests/test-data-xrd

File: corundum.xye
'Id: "Corundum standard" Comment: "" Operator: "Lab Manager" Anode: Cu Scantype: "Locked Coupled"
10.0001 1.09375 0.106739
10.2352 1.17708 0.110731
10.4702 1.11458 0.107751
10.7053 1.34375 0.118311
10.9403 1.23958 0.113632
11.1754 1.25 0.114109
11.4104 1.39583 0.120582
11.6455 1.51042 0.125433
11.8806 1.36458 0.119224
12.1156 1.36458 0.119224
12.3507 1.5 0.125
12.5857 1.41667 0.121478
12.8208 1.625 0.130104
13.0558 1.5625 0.127578
13.2909 1.30208 0.116462
13.5259 1.40625 0.121031
13.761 1.15625 0.109746
13.9961 1.5625 0.127578
14.2311 1.69792 0.132991
14.4662 1.45833 0.123252
14.7012 1.33333 0.117851
14.9363 1.44792 0.122811
15.1713 1.55208 0.127152
15.4064 1.33333 0.117851
15.6415 1.39583 0.120582
15.8765 1.20833 0.112191
16.1116 1.60417 0.129267
16.3466 1.5 0.125
16.5817 1.52083 0.125865
16.8167 1.52083 0.125865
17.0518 1.47917 0.124129
17.2869 1.36458 0.119224
17.5219 1.36458 0.119224
17.757 1.5 0.125
17.992 1.55208 0.127152
18.2271 1.625 0.130104
18.4621 1.78125 0.136216
18.6972 1.65625 0.131349
18.9322 1.54167 0.126724
19.1673 1.38542 0.120131
19.4024 1.63542 0.13052
19.6374 1.64583 0.130935
19.8725 1.69792 0.132991
20.1075 1.69792 0.132991
20.3426 1.65625 0.131349
20.5776 1.85417 0.138976
20.8127 1.88542 0.140142
21.0478 1.875 0.139754
21.2828 1.95833 0.142826
21.5179 2 0.144338
21.7529 1.92708 0.141682
21.988 1.91667 0.141299
22.223 1.78125 0.136216
22.4581 2.0625 0.146575
22.6931 2.19792 0.151311
22.9282 2.03125 0.145461
23.1633 2.08333 0.147314
23.3983 2.10417 0.148049
23.6334 2.125 0.14878
23.8684 2.36458 0.156943
24.1035 2.20833 0.151669
24.3385 2.02083 0.145087
24.5736 2.02083 0.145087
24.8087 2.26042 0.153447
25.0437 2.375 0.157288
25.2788 2.33333 0.155902
25.5138 14.875 0.393634
25.7489 3.45833 0.189801
25.9839 2.51042 0.16171
26.219 2.1875 0.150952
26.4541 2.09375 0.147682
26.6891 2.04167 0.145833
26.9242 2.03125 0.145461
27.1592 1.91667 0.141299
27.3943 1.92708 0.141682
27.6293 1.95833 0.142826
27.8644 2.03125 0.145461
28.0994 1.65625 0.131349
28.3345 2.21875 0.152026
28.5696 1.98958 0.143961
28.8046 1.84375 0.138585
29.0397 1.5625 0.127578
29.2747 1.89583 0.140529
29.5098 1.90625 0.140914
29.7448 1.83333 0.138193
29.9799 1.72917 0.134209
30.215 1.72917 0.134209
30.45 1.6875 0.132583
30.6851 1.77083 0.135817
30.9201 1.70833 0.133398
31.1552 1.4375 0.122368
31.3902 1.66667 0.131762
31.6253 1.78125 0.136216
31.8604 1.70833 0.133398
32.0954 1.375 0.119678
32.3305 1.63542 0.13052
32.5655 1.29167 0.115995
32.8006 1.26042 0.114583
33.0356 1.26042 0.114583
33.2707 1.21875 0.112673
33.5057 1.44792 0.122811
33.7408 1.375 0.119678
33.9759 1.91667 0.141299
34.2109 2.10417 0.148049
34.446 1.82292 0.1378
34.681 2.22917 0.152383
34.9161 4.67708 0.220725
35.1511 426.604 2.10803
35.3862 5.20833 0.232924
35.6213 2.10417 0.148049
35.8563 1.70833 0.133398
36.0914 1.71875 0.133805
36.3264 1.61458 0.129686
36.5615 1.82292 0.1378
36.7965 1.38542 0.120131
37.0316 1.55208 0.127152
37.2667 1.39583 0.120582
37.5017 1.38542 0.120131
37.7368 10.1771 0.325594
37.9718 1.98958 0.143961
38.2069 1.59375 0.128847
38.4419 1.35417 0.118768
38.677 1.1875 0.11122
38.912 1.22917 0.113154
39.1471 1.23958 0.113632
39.3822 1.20833 0.112191
39.6172 1.52083 0.125865
39.8523 1.25 0.114109
40.0873 0.979167 0.100993
40.3224 1.36458 0.119224
40.5574 1.16667 0.11024
40.7925 1.32292 0.11739
41.0276 1.38542 0.120131
41.2626 1.13542 0.108753
41.4977 1.625 0.130104
41.7327 4.08333 0.206239
41.9678 1.58333 0.128425
42.2028 1.375 0.119678
42.4379 1.5 0.125
42.673 1.26042 0.114583
42.908 1.27083 0.115056
43.1431 3.47917 0.190372
43.3781 69.9271 0.853468
43.6132 2.64583 0.166014
43.8482 1.625 0.130104
44.0833 1.59375 0.128847
44.3183 1.72917 0.134209
44.5534 1.19792 0.111706
44.7885 1.11458 0.107751
45.0235 1.28125 0.115526
45.2586 1.26042 0.114583
45.4936 1.04167 0.104167
45.7287 1.22917 0.113154
45.9637 1.02083 0.10312
46.1988 1.92708 0.141682
46.4339 0.979167 0.100993
46.6689 1.30208 0.116462
46.904 0.958333 0.0999132
47.139 1.22917 0.113154
47.3741 1.23958 0.113632
47.6091 1.13542 0.108753
47.8442 1.19792 0.111706
48.0792 1.22917 0.113154
48.3143 1.08333 0.10623
48.5494 1.09375 0.106739
48.7844 1.08333 0.10623
49.0195 1.21875 0.112673
49.2545 1.17708 0.110731
49.4896 1.125 0.108253
49.7246 1.05208 0.104686
49.9597 0.854167 0.0943269
50.1948 1.0625 0.105203
50.4298 1.22917 0.113154
50.6649 1.29167 0.115995
50.8999 1.07292 0.105718
51.135 1.26042 0.114583
51.37 1.27083 0.115056
51.6051 1.21875 0.112673
51.8402 1.47917 0.124129
52.0752 1.23958 0.113632
52.3103 1.97917 0.143584
52.5453 73.0417 0.872268
52.7804 2.66667 0.166667
53.0154 1.11458 0.107751
53.2505 1.38542 0.120131
53.4855 1.30208 0.116462
53.7206 1.21875 0.112673
53.9557 1.17708 0.110731
54.1907 1.60417 0.129267
54.4258 1.21875 0.112673
54.6608 1.17708 0.110731
54.8959 1.04167 0.104167
55.1309 1.14583 0.109251
55.366 1.45833 0.123252
55.6011 1.19792 0.111706
55.8361 1.375 0.119678
56.0712 1.35417 0.118768
56.3062 1.38542 0.120131
56.5413 1.5 0.125
56.7763 1.5625 0.127578
57.0114 1.79167 0.136613
57.2465 4.98958 0.22798
57.4815 265.396 1.66269
57.7166 17.3958 0.425684
57.9516 2.15625 0.14987
58.1867 1.72917 0.134209
58.4217 1.51042 0.125433
58.6568 1.63542 0.13052
58.8918 1.25 0.114109
59.1269 1.55208 0.127152
59.362 1.40625 0.121031
59.597 1.33333 0.117851
59.8321 1.63542 0.13052
60.0671 1.19792 0.111706
60.3022 1.20833 0.112191
60.5372 1.25 0.114109
60.7723 1.42708 0.121924
61.0074 1.85417 0.138976
61.2424 14.03125 0.382307
61.4775 35.3646 0.606944
61.7125 1.76042 0.135417
61.9476 1.26042 0.114583
62.1826 0.958333 0.0999132
62.4177 1.13542 0.108753
62.6528 1.3125 0.116927
62.8878 1.25 0.114109
63.1229 1.19792 0.111706
63.3579 1.11458 0.107751
63.593 1.13542 0.108753
63.828 1.25 0.114109
64.0631 1.09375 0.106739
64.2981 1.28125 0.115526
64.5332 1.125 0.108253
64.7683 1.04167 0.104167
65.0033 1.09375 0.106739
65.2384 1.11458 0.107751
65.4734 1.28125 0.115526
65.7085 1.35417 0.118768
65.9435 1.125 0.108253
66.1786 1.39583 0.120582
66.4137 3.35417 0.18692
66.6487 6.3125 0.256428
66.8838 1.70833 0.133398
67.1188 1.15625 0.109746
67.3539 1.1875 0.11122
67.5889 1.1875 0.11122
67.824 1.27083 0.115056
68.0591 2.05208 0.146205
68.2941 4.48958 0.216256
68.5292 1.8125 0.137405
68.7642 1.26042 0.114583
68.9993 1.32292 0.11739
69.2343 1.16667 0.11024
69.4694 1.22917 0.113154
69.7044 1.11458 0.107751
69.9395 1.19792 0.111706
70.1746 1.01042 0.102592
70.4096 2.875 0.173055
70.6447 1.52083 0.125865
70.8797 1.02083 0.10312
71.1148 0.979167 0.100993
71.3498 1.02083 0.10312
71.5849 1.0625 0.105203
71.82 1.04167 0.104167
72.055 0.895833 0.0966002
72.2901 0.979167 0.100993
72.5251 1.11458 0.107751
72.7602 0.84375 0.09375
72.9952 0.895833 0.0966002
73.2303 1.03125 0.103645
73.4653 1.02083 0.10312
73.7004 0.958333 0.0999132
73.9355 1.1875 0.11122
74.1705 1.375 0.119678
74.4056 1.82292 0.1378
74.6406 1.3125 0.116927
74.8757 1.17708 0.110731
75.1107 1.1875 0.11122
75.3458 1.19792 0.111706
75.5809 1.13542 0.108753
75.8159 1.29167 0.115995
76.051 1.29167 0.115995
76.286 1.57292 0.128002
76.5211 2.85417 0.172427
76.7561 8.32292 0.294444
76.9912 11.3229 0.343434
77.2263 49.4167 0.717466
77.4613 23.8333 0.498261
77.6964 1.76042 0.135417
77.9314 1.53125 0.126295
78.1665 1.41667 0.121478
78.4015 1.19792 0.111706
78.6366 1 0.102062
78.8716 1.13542 0.108753
79.1067 0.979167 0.100993
79.3418 1.08333 0.10623
79.5768 1.17708 0.110731
79.8119 0.947917 0.0993687
80.0061 1.0625 0.105203