Folder: scimap-tests/test-data-electrochem

File: eclab-test-data.mpt
EC-Lab ASCII FILE
Nb header lines : 69

Galvanostatic Cycling with Potential Limitation

Run on channel : 10 (SN 16534)
Grouped channel(s) : 10
User :
CE vs. WE compliance from -10 V to 10 V
Electrode connection : standard
Ewe ctrl range : min = 0.00 V, max = 5.00 V
Acquisition started on : 02/09/2015 16:20:24
Saved on :
	File : 020915_LMO_CK_C10.mpr
	Directory : D:\wolf\
	Host : 169.254.169.228
Device : VMP3 (SN 0776)
Address : USB
EC-Lab for windows v10.34 (software)
Internet server v10.34 (firmware)
Command interpretor v10.34 (firmware)
Electrode material :
Initial state :
Electrolyte :
Comments : LiMn2O4
Mass of active material : 22.530 mg
 at x = 1.000
Molecular weight of active material (at x = 0) : 173.874 g/mol
Atomic weight of intercalated ion : 6.940 g/mol
Acquisition started at : xo = 1.000
Number of e- transfered per intercalated ion : 1
for DX = 1, DQ = 3.340 mA.h
Battery capacity : 0.000 A.h
Electrode surface area : 0.001 cm²
Characteristic mass : 0.001 g
Record Power
Ns                  0                   1                   2
Set I/C             I                   I                   I
Is                  0.000               334.000             -334.000
unit Is             mA                  µA                  µA
vs.                 <None>              <None>              <None>
N                   1                   1                   1
I sign              > 0                 > 0                 > 0
t1 (h:m:s)          0:00:0.0000         9999:00:0.0000      9999:00:0.0000
I Range             10 mA               10 mA               10 mA
Bandwidth           5                   5                   5
dE1 (mV)            0.00                10.00               10.00
dt1 (s)             0.0000              60.0000             60.0000
EM (V)              0.000               4.500               3.000
tM (h:m:s)          0:00:0.0000         0:00:0.0000         0:00:0.0000
Im                  0.000               550.000             0.000
unit Im             mA                  nA                  mA
E range min (V)     0.000               0.000               0.000
E range max (V)     5.000               5.000               5.000
dq                  0.000               10.000              10.000
unit dq             mA.h                µA.h                µA.h
dtq (s)             0.0000              120.0000            120.0000
dQM                 0.000               0.000               0.000
unit dQM            mA.h                mA.h                mA.h
dxM                 0.000               0.000               0.000
tR (h:m:s)          0:01:0.0000         0:00:0.0000         0:00:0.0000
dER/dt (mV/h)       0.0                 0.0                 0.0
dER (mV)            0.00                5.00                5.00
dtR (s)             1.0000              10.0000             10.0000
EL (V)              pass                pass                pass
goto Ns'            0                   0                   1
nc cycles           0                   0                   99

mode	ox/red	error	control changes	Ns changes	counter inc.	Ns	time/s	control/V/mA	Ewe/V	dq/mA.h	P/W	<I>/mA	(Q-Qo)/mA.h	x	cycle number	d(Q-Qo)/dE/mA.h/V
3	0	0	0	0	0	0	0.0000	0	3.1464	0	0	0	0	1	1	XXX
3	0	0	0	0	0	0	49.0000	0	3.1464	0	0	0	0	1	1	XXX
1	1	0	0	0	0	1	64.5400	0.334	3.53057	1.77371e-05	0.00117908	0.333962	0.00042115	0.999874	1	0.00176949
1	1	0	0	0	0	1	732.0142	0.334	3.96321	0.00557132	0.00132482	0.334279	0.0623955	0.981316	1	3.31603
1	1	0	0	0	0	1	3672.01	0.334	4.01608	0.00557159	0.00134256	0.334295	0.335381	0.899573	1	XXX
1	1	0	0	0	0	1	6612.01	0.334	4.05039	0.00556838	0.00135325	0.334103	0.608302	0.817849	1	XXX
1	1	0	0	0	0	1	9552.01	0.334	4.08138	0.00557122	0.0013643	0.334273	0.881224	0.736125	1	XXX
1	1	0	0	0	0	1	12492	0.334	4.11452	0.00557123	0.00137538	0.334274	1.15412	0.654408	1	XXX
1	1	0	0	0	0	1	15432	0.334	4.1503	0.00557146	0.0013874	0.334288	1.42705	0.572683	1	XXX
1	1	0	0	0	0	1	18372	0.334	4.17946	0.00557135	0.00139711	0.334281	1.70002	0.490945	1	XXX
1	1	0	0	0	0	1	21312	0.334	4.21155	0.00557025	0.00140756	0.334215	1.97291	0.409229	1	XXX
1	1	0	0	0	0	1	24252	0.334	4.29999	0.00557092	0.0014373	0.334255	2.24585	0.327501	1	1.0969
1	0	0	1	0	0	2	25169.3	-0.334	4.2249	-0.00557894	0.00141423	-0.334737	2.24548	0.327612	1	-0.961134
1	0	0	1	0	0	2	28109.3	-0.334	4.12562	-0.00557286	0.00137949	-0.334372	1.97233	0.409403	1	XXX
1	0	0	1	0	0	2	31049.3	-0.334	4.08338	-0.00557246	0.00136527	-0.334348	1.69923	0.491179	1	XXX
1	0	0	1	0	0	2	33989.3	-0.334	4.0463	-0.00557257	0.0013529	-0.334354	1.42616	0.572947	1	XXX
1	0	0	1	0	0	2	36929.3	-0.334	4.01129	-0.00557248	0.001341169	-0.334349	1.15305	0.654728	1	-8.19875
1	0	0	1	0	0	2	39869.3	-0.334	3.97818	-0.00557428	0.00133053	-0.334457	0.87993	0.736513	1	XXX
1	0	0	1	0	0	2	42809.3	-0.334	3.94526	-0.0055731	0.00131924	-0.334386	0.606763	0.81831	1	XXX
1	0	0	1	0	0	2	45749.3	-0.334	3.9042	-0.0055739	0.0013057	-0.334434	0.333644	0.900093	1	-5.86901
1	0	0	1	0	0	2	48615.5	-0.334	3.73555	-0.00328134	0.00125031	-0.334705	0.0673578	0.97983	1	-0.327354
1	0	0	1	0	0	2	48904.4	-0.334	3.24488	-0.00011521	0.001085	-0.334373	0.0405242	0.987865	1	-0.0114718
1	1	0	0	0	1	1	48934.8	0.334	3.25767	1.58204e-05	0.00108882	0.334233	0.0381183	0.988586	2	0.00157831
1	1	0	0	0	1	1	48947.6	0.334	3.74889	3.7636e-05	0.00125293	0.334212	0.0393101	0.988229	2	0.00376181
1	1	0	0	0	1	1	50976.5	0.334	3.99071	0.00557108	0.00133395	0.334265	0.227682	0.931823	2	6.55672
1	1	0	0	0	1	1	53916.5	0.334	4.02733	0.00557126	0.00134624	0.334276	0.500648	0.850085	2	XXX
1	1	0	0	0	1	1	56856.5	0.334	4.05862	0.00556561	0.00135532	0.333936	0.773537	0.768371	2	9.06931
1	1	0	0	0	1	1	59796.5	0.334	4.09073	0.00557108	0.00136739	0.334265	1.04652	0.686628	2	XXX
1	1	0	0	0	1	1	62736.5	0.334	4.12609	0.00557077	0.00137913	0.334246	1.31945	0.604902	2	XXX
1	1	0	0	0	1	1	65676.5	0.334	4.157444	0.00557064	0.00138957	0.334237	1.59232	0.523193	2	XXX
1	1	0	0	0	1	1	68616.5	0.334	4.18396	0.00557088	0.0013985	0.334252	1.8652	0.441483	2	XXX
1	1	0	0	0	1	1	71556.6	0.334	4.22576	0.0055665	0.00141136	0.333989	2.13804	0.359781	2	XXX
1	0	0	1	0	1	2	73456.2	-0.334	4.47971	-1.61655e-06	0.00149828	-0.334459	2.31439	0.306976	2	-0.00016129
1	0	0	1	0	1	2	75327.3	-0.334	4.18333	-0.00557717	0.00139986	-0.334629	2.14055	0.359032	2	XXX
1	0	0	1	0	1	2	78267.3	-0.334	4.14167	-0.00557337	0.00138498	-0.334401	1.86747	0.440803	2	XXX
1	0	0	1	0	1	2	81207.3	-0.334	4.11191	-0.00557221	0.00137474	-0.334332	1.59424	0.522617	2	XXX
1	0	0	1	0	1	2	84147.4	-0.334	4.07303	-0.00557198	0.00136169	-0.334318	1.32116	0.60439	2	-6.27556
1	0	0	1	0	1	2	87087.4	-0.334	4.02939	-0.00557286	0.00134731	-0.334371	1.04806	0.686168	2	XXX
1	0	0	1	0	1	2	90027.4	-0.334	3.99023	-0.00557691	0.00133518	-0.334613	0.774954	0.767947	2	-7.0347
1	0	0	1	0	1	2	92967.4	-0.334	3.95218	-0.00558042	0.00132329	-0.334824	0.501792	0.849743	2	XXX
1	0	0	1	0	1	2	95907.4	-0.334	3.90124	-0.00557444	0.00130483	-0.334465	0.228634	0.931538	2	-3.41421
1	0	0	1	0	1	2	97571.7	-0.334	3.56182	-0.000252086	0.00119101	-0.334381	0.0740238	0.977834	2	-0.0251009
1	0	0	1	0	1	2	97629	-0.334	3.07054	-9.75333e-05	0.00102659	-0.334336	0.0686991	0.979429	2	-0.00974869
1	1	0	0	0	0	1	97643.6	0.334	3.42101	2.50889e-05	0.00114355	0.334271	0.0686292	0.97945	3	0.0025077
1	1	0	0	0	0	1	97829.5	0.334	3.91239	0.0049366	0.00130773	0.334253	0.0858918	0.97428	3	0.493437
1	1	0	0	0	0	1	100770	0.334	4.00176	0.00557074	0.00133756	0.334243	0.358812	0.892557	3	XXX
1	1	0	0	0	0	1	103710	0.334	4.03662	0.00557084	0.00134924	0.334249	0.631653	0.810857	3	XXX
1	1	0	0	0	0	1	106650	0.334	4.06637	0.00557118	0.00135926	0.33427	0.9046	0.729125	3	XXX
1	1	0	0	0	0	1	109590	0.334	4.09889	0.00557021	0.00136989	0.334212	1.17743	0.647429	3	7.55244
1	1	0	0	0	0	1	112530	0.334	4.13499	0.00557044	0.00138202	0.334225	1.45035	0.565707	3	XXX
1	1	0	0	0	0	1	115470	0.334	4.16352	0.00557098	0.00139169	0.334258	1.72327	0.483981	3	XXX
1	1	0	0	0	0	1	118410	0.334	4.19246	0.00557075	0.00140131	0.334244	1.99612	0.40228	3	XXX
1	1	0	0	0	0	1	121350	0.334	4.25604	0.00557062	0.00142252	0.334236	2.269	0.320566	3	2.07646
1	0	0	1	0	0	2	122287	-0.334	4.31036	-0.00133579	0.00144143	-0.334412	2.34485	0.297856	3	-0.133264
1	0	0	1	0	0	2	125112	-0.334	4.16571	-0.00558061	0.00139483	-0.334835	2.08239	0.376446	3	-6.08572
1	0	0	1	0	0	2	128052	-0.334	4.13343	-0.00557619	0.00138292	-0.334571	1.80924	0.458239	3	XXX
1	0	0	1	0	0	2	130992	-0.334	4.1049	-0.00557716	0.00137362	-0.334629	1.53611	0.540024	3	XXX
1	0	0	1	0	0	2	133932	-0.334	4.06677	-0.00557191	0.00135958	-0.334314	1.26299	0.62181	3	XXX
1	0	0	1	0	0	2	136872	-0.334	4.02748	-0.00557263	0.00134662	-0.334358	0.989901	0.703583	3	XXX
1	0	0	1	0	0	2	139812	-0.334	3.99065	-0.00557243	0.00133426	-0.334346	0.716797	0.785361	3	-7.38934
1	0	0	1	0	0	2	142752	-0.334	3.95137	-0.00557241	0.00132112	-0.334344	0.443695	0.867139	3	XXX
1	0	0	1	0	0	2	145692	-0.334	3.87949	-0.00557301	0.00129722	-0.33438	0.170599	0.948915	3	-1.63988
1	0	0	1	0	0	2	146342	-0.334	3.41836	-8.38314e-05	0.00114296	-0.33436	0.110166	0.967012	3	-0.00837935
1	1	0	0	0	1	1	146385	0.334	3.07804	1.12148e-05	0.00102873	0.334216	0.106318	0.968164	4	0.001118841
1	1	0	0	0	1	1	146396	0.334	3.56919	2.84297e-05	0.001193	0.334248	0.107403	0.967839	4	0.00284162
1	1	0	0	0	1	1	147551	0.334	3.95414	0.00557054	0.0013216	0.334233	0.214585	0.935744	4	XXX
1	1	0	0	0	1	1	150491	0.334	4.00499	0.00557091	0.00133868	0.334254	0.487547	0.854008	4	XXX
1	1	0	0	0	1	1	153431	0.334	4.0389	0.0055709	0.00135002	0.334254	0.760496	0.772276	4	XXX
1	1	0	0	0	1	1	156371	0.334	4.07097	0.00557031	0.00136059	0.334218	1.03342	0.690553	4	XXX
1	1	0	0	0	1	1	159311	0.334	4.10715	0.00557007	0.00137263	0.334204	1.30634	0.608829	4	7.2478
1	1	0	0	0	1	1	162251	0.334	4.14223	0.00557049	0.00138446	0.33423	1.57929	0.527096	4	XXX
1	1	0	0	0	1	1	165191	0.334	4.1693	0.00556988	0.00139335	0.334193	1.85222	0.44537	4	XXX
1	1	0	0	0	1	1	168131	0.334	4.20262	0.00557007	0.00140453	0.334204	2.1251	0.363658	4	XXX
1	1	0	0	0	1	1	170921	0.334	4.35838	0.0015483	0.00145668	0.334226	2.38409	0.286104	4	0.15476
1	0	0	1	0	1	2	171841	-0.334	4.21675	-0.00557266	0.00140991	-0.33436	2.31234	0.30759	4	XXX
1	0	0	1	0	1	2	174781	-0.334	4.15622	-0.00557858	0.00139115	-0.334715	2.03921	0.389376	4	XXX
1	0	0	1	0	1	2	177721	-0.334	4.12796	-0.00557295	0.0013803	-0.334377	1.76614	0.471146	4	XXX
1	0	0	1	0	1	2	180661	-0.334	4.09719	-0.00557303	0.00137003	-0.334382	1.49307	0.552914	4	XXX
1	0	0	1	0	1	2	183601	-0.334	4.0578	-0.00557358	0.00135699	-0.334414	1.21998	0.634688	4	-6.74948
1	0	0	1	0	1	2	186541	-0.334	4.02072	-0.00557286	0.00134441	-0.334372	0.946866	0.716469	4	XXX
1	0	0	1	0	1	2	189481	-0.334	3.98521	-0.00557305	0.00133258	-0.334383	0.673792	0.798239	4	XXX
1	0	0	1	0	1	2	192421	-0.334	3.94406	-0.00557305	0.00131883	-0.334383	0.400706	0.880012	4	XXX
1	0	0	1	0	1	2	195042	-0.334	3.76837	-0.000510184	0.00126005	-0.334376	0.157246	0.952914	4	-0.0509941
1	0	0	1	0	1	2	195098	-0.334	3.27718	-8.9672e-05	0.00109585	-0.334389	0.152088	0.954458	4	-0.00896315
1	1	0	0	0	0	1	195131	0.334	3.21087	1.903e-05	0.00107303	0.334186	0.149578	0.95521	5	0.00189848
1	1	0	0	0	0	1	195145	0.334	3.70227	3.81734e-05	0.00123731	0.334203	0.150925	0.954807	5	0.00379383
1	1	0	0	0	0	1	197153	0.334	3.96482	0.00557076	0.00132522	0.334246	0.337268	0.899008	5	4.466
1	1	0	0	0	0	1	200093	0.334	4.00856	0.00556967	0.00133958	0.33418	0.610217	0.817276	5	XXX
1	1	0	0	0	0	1	203033	0.334	4.04296	0.00556981	0.00135111	0.334189	0.883162	0.735545	5	XXX
1	1	0	0	0	0	1	205973	0.334	4.07741	0.00557025	0.00136273	0.334215	1.1561	0.653817	5	XXX
1	1	0	0	0	0	1	208913	0.334	4.11546	0.00557013	0.00137542	0.334208	1.42903	0.572089	5	7.24773
1	1	0	0	0	0	1	211853	0.334	4.14828	0.00556988	0.00138633	0.334193	1.70196	0.490362	5	XXX
1	1	0	0	0	0	1	214793	0.334	4.1753	0.0055701	0.00139541	0.334206	1.97488	0.408638	5	XXX
1	1	0	0	0	0	1	217733	0.334	4.21606	0.00556967	0.00140892	0.33418	2.2478	0.326916	5	XXX
1	1	0	0	0	0	1	219739	0.334	4.49993	0.000200139	0.00150381	0.334184	2.43405	0.271144	5	0.0199668
1	0	0	1	0	0	2	221418	-0.334	4.19007	-0.00557276	0.00140102	-0.334366	2.27807	0.317852	5	XXX
1	0	0	1	0	0	2	224358	-0.334	4.1479	-0.00557317	0.00138702	-0.33439	2.00498	0.399625	5	-9.1795
1	0	0	1	0	0	2	227298	-0.334	4.12082	-0.00557245	0.00137778	-0.334347	1.7319	0.481399	5	XXX
1	0	0	1	0	0	2	230238	-0.334	4.08716	-0.00557282	0.00136662	-0.334369	1.45879	0.563179	5	XXX
1	0	0	1	0	0	2	233178	-0.334	4.04772	-0.00557297	0.00135347	-0.334378	1.18571	0.64495	5	XXX
1	0	0	1	0	0	2	236118	-0.334	4.01163	-0.00557282	0.00134137	-0.334369	0.912636	0.726719	5	XXX
1	0	0	1	0	0	2	239058	-0.334	3.97568	-0.00557289	0.00132936	-0.334373	0.639568	0.808487	5	XXX
1	0	0	1	0	0	2	241998	-0.334	3.92884	-0.00557223	0.00131355	-0.334334	0.366493	0.890257	5	XXX
1	0	0	1	0	0	2	243801	-0.334	3.62853	-8.47715e-05	0.0012134	-0.334404	0.199068	0.940391	5	-0.008457
1	0	0	1	0	0	2	243848	-0.334	3.13771	-0.000100279	0.00104921	-0.334388	0.194686	0.941703	5	-0.0100041
1	1	0	0	0	1	1	243870	0.334	3.34907	2.51225e-05	0.00111934	0.334223	0.193804	0.941967	6	0.00251105
1	1	0	0	0	1	1	243916	0.334	3.84004	0.000932374	0.00128354	0.334251	0.198031	0.940701	6	0.0928412
1	1	0	0	0	1	1	246729	0.334	3.97709	0.00556925	0.00132897	0.334155	0.459188	0.8625	6	XXX
1	1	0	0	0	1	1	248506	0.334	4.00243	0.00345664	0.00133778	0.334242	0.624214	0.813085	6	XXX