Folder: scimap-tests/test-data-xrd/xrd-map-34-ID-E (part 2)

File: Data_0006.chi
F:\20151113_APS_34IDE\\Brian\Particle1\OCV\Data_0006.tif
2-Theta Angle (Degrees)
Intensity
       2000
 0.07475  0.0000000E+00
 0.15525  0.0000000E+00
 0.23575  0.0000000E+00
 0.31625  0.0000000E+00
 0.39675  0.0000000E+00
 0.47725  0.0000000E+00
 0.55775  0.0000000E+00
 0.63825  0.0000000E+00
 0.71875  0.0000000E+00
 0.79925  0.0000000E+00
 0.87975  0.0000000E+00
 0.96025  0.0000000E+00
 1.04075  0.0000000E+00
 1.12125  0.0000000E+00
 1.20175  0.0000000E+00
 1.28225  0.0000000E+00
 1.36275  0.0000000E+00
 1.44325  0.0000000E+00
 1.52375  0.0000000E+00
 1.60425  0.0000000E+00
 1.68475  0.0000000E+00
 1.76525  0.0000000E+00
 1.84575  0.0000000E+00
 1.92625  0.0000000E+00
 2.00675  0.0000000E+00
 2.08725  0.0000000E+00
 2.16775  0.0000000E+00
 2.24825  0.0000000E+00
 2.32875  0.0000000E+00
 2.40925  0.0000000E+00
 2.48975  0.0000000E+00
 2.57025  0.0000000E+00
 2.65075  0.0000000E+00
 2.73125  0.0000000E+00
 2.81175  0.0000000E+00
 2.89225  34.3717
 2.97275  35.9044
 3.05325  35.6951
 3.13375  34.9655
 3.21425  35.0542
 3.29475  35.659
 3.37525  34.7723
 3.45575  34.7361
 3.53625  33.4276
 3.61675  34.032
 3.69725  33.5764
 3.77775  33.5406
 3.85825  32.5411
 3.93875  32.9503
 4.01925  32.9305
 4.09975  32.8512
 4.18025  32.4759
 4.26075  32.4002
 4.34125  32.3241
 4.42175  32.6156
 4.50225  32.538
 4.58275  32.191
 4.66325  33.1278
 4.74375  33.2387
 4.82425  32.8416
 4.90475  32.8178
 4.98525  32.8993
 5.06575  33.5514
 5.14625  33.918
 5.22675  34.0228
 5.30725  33.809
 5.38775  34.6561
 5.46825  34.7402
 5.54875  34.913
 5.62925  35.0511
 5.70975  35.4256
 5.79025  35.6119
 5.87075  36.2745
 5.95125  39.1193
 6.03175  38.68
 6.11225  36.8795
 6.19275  37.2126
 6.27325  37.859
 6.35375  37.7547
 6.43425  38.5838
 6.51475  39.2461
 6.59525  39.5934
 6.67575  40.2606
 6.75625  40.932
 6.83675  41.3514
 6.91725  41.8728
 6.99775  42.6487
 7.07825  42.8708
 7.15875  43.5823
 7.23925  43.833
 7.31975  44.0398
 7.40025  44.2073
 7.48075  44.5916
 7.56125  44.554
 7.64175  44.6351
 7.72225  44.381
 7.80275  44.4451
 7.88325  44.3459
 7.96375  44.0881
 8.04425  43.7803
 8.12475  43.1752
 8.20525  42.2391
 8.28575  41.287
 8.36625  40.4562
 8.44675  39.0807
 8.52725  38.0685
 8.60775  36.6946
 8.68825  35.5249
 8.76875  34.1731
 8.84925  33.5915
 8.92975  32.1932
 9.01025  31.1456
 9.09075  30.08
 9.17125  29.2734
 9.25175  28.386
 9.33225  27.6924
 9.41275  27.3889
 9.49325  26.7299
 9.57375  26.4437
 9.65425  26.0502
 9.73475  25.4231
 9.81525  25.2697
 9.89575  24.8514
 9.97625  24.7237
 10.0567  24.4582
 10.1373  24.2879
 10.2178  24.0893
 10.2982  23.9267
 10.3788  23.6303
 10.4593  23.5983
 10.5397  23.4208
 10.6203  23.2471
 10.7007  23.0647
 10.7813  23.1963
 10.8618  22.949
 10.9422  22.855
 11.0228  22.6767
 11.1033  22.653
 11.1837  22.5999
 11.2643  22.5559
 11.3447  22.5535
 11.4253  23.1343
 11.5058  23.2087
 11.5862  26.0838
 11.6668  22.9782
 11.7473  22.7142
 11.8277  22.735
 11.9083  22.7042
 11.9887  23.0565
 12.0693  23.3733
 12.1498  23.5471
 12.2302  22.8128
 12.3108  22.8427
 12.3913  22.7556
 12.4718  22.8262
 12.5523  22.8335
 12.6328  23.0498
 12.7133  22.9715
 12.7938  23.1578
 12.8742  23.568
 12.9548  23.8498
 13.0353  24.3389
 13.1158  25.0906
 13.1963  25.8139
 13.2768  26.7351
 13.3573  27.8971
 13.4378  28.6957
 13.5183  29.7244
 13.5988  29.9832
 13.6793  29.9783
 13.7598  29.5232
 13.8403  29.2784
 13.9208  31.8739
 14.0013  30.1247
 14.0818  27.6311
 14.1623  27.1666
 14.2428  26.6778
 14.3233  26.3455
 14.4038  26.1906
 14.4843  25.9933
 14.5648  25.6351
 14.6453  25.5962
 14.7258  25.2144
 14.8063  25.3395
 14.8868  25.3454
 14.9673  25.0837
 15.0478  24.9658
 15.1283  24.9879
 15.2088  25.7294
 15.2892  24.9172
 15.3698  24.781
 15.4503  24.6541
 15.5308  24.7278
 15.6113  24.6743
 15.6918  24.6232
 15.7723  24.7966
 15.8528  24.6125
 15.9332  24.7738
 16.0138  24.734
 16.0943  24.7025
 16.1748  25.0663
 16.2553  26.0012
 16.3358  24.9734
 16.4163  24.8486
 16.4967  24.8414
 16.5773  24.6293
 16.6578  24.7549
 16.7383  24.7857
 16.8188  24.5408
 16.8992  24.3446
 16.9798  24.4554
 17.0603  24.3993
 17.1408  24.374
 17.2213  24.3804
 17.3017  24.2936
 17.3823  24.2234
 17.4628  24.1164
 17.5433  24.0389
 17.6238  24.0341
 17.7042  23.996
 17.7847  23.8673
 17.8653  23.9931
 17.9458  24.0502
 18.0263  24.3259
 18.1068  24.7882
 18.1872  23.9004
 18.2678  23.8144
 18.3483  23.6596
 18.4288  23.7443
 18.5093  23.6883
 18.5897  23.7751
 18.6703  23.6363
 18.7508  23.6278
 18.8313  23.5179
 18.9118  23.586
 18.9922  23.3972
 19.0727  23.4644
 19.1533  23.6425
 19.2338  23.5946
 19.3143  23.6502
 19.3948  23.6874
 19.4752  23.671
 19.5558  23.6305
 19.6363  23.879
 19.7168  26.0727
 19.7973  24.5522
 19.8777  25.3873
 19.9582  24.1037
 20.0388  23.8066
 20.1193  23.8142
 20.1998  23.9278
 20.2803  23.93
 20.3607  23.798
 20.4413  23.9519
 20.5218  23.8537
 20.6023  23.9143
 20.6828  23.9998
 20.7632  24.9004
 20.8438  24.0017
 20.9243  24.05
 21.0048  23.9876
 21.0853  23.9647
 21.1658  23.9121
 21.2462  23.9818
 21.3268  23.9954
 21.4073  24.0491
 21.4878  24.0174
 21.5683  24.1559
 21.6487  24.1616
 21.7293  24.274
 21.8098  24.2394
 21.8903  24.1954
 21.9708  24.3656
 22.0512  24.3126
 22.1318  24.464
 22.2123  24.4035
 22.2928  24.68
 22.3733  24.6667
 22.4538  24.6446
 22.5343  24.9464
 22.6148  24.9762
 22.6953  25.0951
 22.7758  25.2994
 22.8563  25.5924
 22.9367  26.0539
 22.9943  26.4609

File: Data_0007.chi
F:\20151113_APS_34IDE\\Brian\Particle1\OCV\Data_0007.tif
2-Theta Angle (Degrees)
Intensity
       2000
 0.07475  0.0000000E+00
 0.15525  0.0000000E+00
 0.23575  0.0000000E+00
 0.31625  0.0000000E+00
 0.39675  0.0000000E+00
 0.47725  0.0000000E+00
 0.55775  0.0000000E+00
 0.63825  0.0000000E+00
 0.71875  0.0000000E+00
 0.79925  0.0000000E+00
 0.87975  0.0000000E+00
 0.96025  0.0000000E+00
 1.04075  0.0000000E+00
 1.12125  0.0000000E+00
 1.20175  0.0000000E+00
 1.28225  0.0000000E+00
 1.36275  0.0000000E+00
 1.44325  0.0000000E+00
 1.52375  0.0000000E+00
 1.60425  0.0000000E+00
 1.68475  0.0000000E+00
 1.76525  0.0000000E+00
 1.84575  0.0000000E+00
 1.92625  0.0000000E+00
 2.00675  0.0000000E+00
 2.08725  0.0000000E+00
 2.16775  0.0000000E+00
 2.24825  0.0000000E+00
 2.32875  0.0000000E+00
 2.40925  0.0000000E+00
 2.48975  0.0000000E+00
 2.57025  0.0000000E+00
 2.65075  0.0000000E+00
 2.73125  0.0000000E+00
 2.81175  0.0000000E+00
 2.89225  35.5171
 2.97275  35.9493
 3.05325  35.3263
 3.13375  35.2096
 3.21425  35.2178
 3.29475  34.3397
 3.37525  34.8236
 3.45575  34.5901
 3.53625  33.9598
 3.61675  32.9626
 3.69725  32.8714
 3.77775  32.8459
 3.85825  32.3787
 3.93875  32.1975
 4.01925  33.1765
 4.09975  32.1919
 4.18025  31.7272
 4.26075  32.1675
 4.34125  31.7524
 4.42175  32.7958
 4.50225  32.4565
 4.58275  32.7105
 4.66325  32.3738
 4.74375  32.2326
 4.82425  32.5571
 4.90475  32.7377
 4.98525  32.9788
 5.06575  33.2692
 5.14625  33.8075
 5.22675  33.7343
 5.30725  34.2209
 5.38775  34.236
 5.46825  34.6398
 5.54875  34.9177
 5.62925  35.0647
 5.70975  35.3361
 5.79025  35.7407
 5.87075  35.7795
 5.95125  37.718
 6.03175  37.1817
 6.11225  36.4962
 6.19275  36.7654
 6.27325  37.664
 6.35375  38.1065
 6.43425  38.7095
 6.51475  39.0147
 6.59525  39.5828
 6.67575  39.9041
 6.75625  40.5499
 6.83675  41.4723
 6.91725  41.9088
 6.99775  42.7379
 7.07825  42.7407
 7.15875  43.4746
 7.23925  43.855
 7.31975  43.863
 7.40025  44.1392
 7.48075  44.6227
 7.56125  44.6275
 7.64175  44.5803
 7.72225  44.4101
 7.80275  44.6526
 7.88325  44.0805
 7.96375  44.0311
 8.04425  43.8629
 8.12475  42.8903
 8.20525  42.2903
 8.28575  41.2267
 8.36625  40.3333
 8.44675  39.1013
 8.52725  37.9206
 8.60775  36.6409
 8.68825  35.4533
 8.76875  34.1494
 8.84925  32.8
 8.92975  32.1017
 9.01025  31.1718
 9.09075  30.2573
 9.17125  29.16
 9.25175  28.3137
 9.33225  27.6107
 9.41275  27.3026
 9.49325  26.7465
 9.57375  26.3902
 9.65425  25.8845
 9.73475  25.5875
 9.81525  25.0736
 9.89575  25.0084
 9.97625  24.4411
 10.0567  24.2728
 10.1373  24.0299
 10.2178  23.9468
 10.2982  23.7081
 10.3788  23.5698
 10.4593  23.3667
 10.5397  23.2744
 10.6203  23.3124
 10.7007  23.0908
 10.7813  22.9916
 10.8618  22.8404
 10.9422  22.5034
 11.0228  22.6146
 11.1033  22.6803
 11.1837  22.5915
 11.2643  22.3964
 11.3447  22.6896
 11.4253  23.1203
 11.5058  22.8355
 11.5862  24.6303
 11.6668  22.8564
 11.7473  22.5208
 11.8277  22.6282
 11.9083  22.3852
 11.9887  22.8866
 12.0693  24.0013
 12.1498  23.5498
 12.2302  22.6622
 12.3108  22.6387
 12.3913  22.7439
 12.4718  22.7931
 12.5523  22.7695
 12.6328  22.9447
 12.7133  23.0806
 12.7938  23.1746
 12.8742  23.5428
 12.9548  23.8027
 13.0353  24.2828
 13.1158  24.9483
 13.1963  25.7317
 13.2768  26.5874
 13.3573  27.6245
 13.4378  28.6187
 13.5183  29.4291
 13.5988  29.6702
 13.6793  29.8598
 13.7598  29.5384
 13.8403  28.932
 13.9208  31.2033
 14.0013  29.5023
 14.0818  27.594
 14.1623  26.9705
 14.2428  26.4301
 14.3233  26.1924
 14.4038  26.0186
 14.4843  25.675
 14.5648  25.5548
 14.6453  25.3728
 14.7258  25.8643
 14.8063  25.1072
 14.8868  24.9153
 14.9673  24.6103
 15.0478  24.858
 15.1283  24.9491
 15.2088  25.3211
 15.2892  24.6519
 15.3698  24.54
 15.4503  24.4266
 15.5308  24.6383
 15.6113  24.516
 15.6918  24.5158
 15.7723  24.6388
 15.8528  24.5813
 15.9332  24.5918
 16.0138  24.7136
 16.0943  24.7563
 16.1748  24.8294
 16.2553  25.5032
 16.3358  25.0477
 16.4163  24.7148
 16.4967  24.7402
 16.5773  24.6585
 16.6578  24.6299
 16.7383  24.6598
 16.8188  24.5751
 16.8992  24.3706
 16.9798  24.3371
 17.0603  24.1814
 17.1408  24.2209
 17.2213  24.3145
 17.3017  24.1671
 17.3823  23.9676
 17.4628  23.9153
 17.5433  23.8241
 17.6238  23.8582
 17.7042  23.7721
 17.7847  23.6998
 17.8653  23.7063
 17.9458  23.722
 18.0263  23.8145
 18.1068  24.1233
 18.1872  23.6526
 18.2678  23.6032
 18.3483  23.6588
 18.4288  23.6589
 18.5093  23.6824
 18.5897  23.6456
 18.6703  23.5102
 18.7508  23.4731
 18.8313  23.4604
 18.9118  23.5905
 18.9922  23.6918
 19.0727  23.6658
 19.1533  23.61
 19.2338  23.5101
 19.3143  23.6974
 19.3948  23.6543
 19.4752  23.5718
 19.5558  23.6995
 19.6363  23.7076
 19.7168  24.5074
 19.7973  24.0456
 19.8777  24.4806
 19.9582  23.7629
 20.0388  23.6325
 20.1193  23.8319
 20.1998  23.8088
 20.2803  23.942
 20.3607  23.6466
 20.4413  23.8103
 20.5218  23.739
 20.6023  23.8032
 20.6828  23.8617
 20.7632  24.485
 20.8438  23.8969
 20.9243  23.9476
 21.0048  23.9758
 21.0853  23.8842
 21.1658  23.834
 21.2462  23.9024
 21.3268  24.0223
 21.4073  23.9329
 21.4878  24.0078
 21.5683  24.0086
 21.6487  24.0588
 21.7293  24.1365
 21.8098  24.2062
 21.8903  24.228
 21.9708  24.1755
 22.0512  24.3181
 22.1318  24.3138
 22.2123  24.3217
 22.2928  24.4351
 22.3733  24.5092
 22.4538  24.7206
 22.5343  24.8005
 22.6148  24.8999
 22.6953  25.1151
 22.7758  25.2575
 22.8563  25.4796
 22.9367  25.816
 22.9943  26.3296

File: Data_0008.chi
F:\20151113_APS_34IDE\\Brian\Particle1\OCV\Data_0008.tif
2-Theta Angle (Degrees)
Intensity
       2000
 0.07475  0.0000000E+00
 0.15525  0.0000000E+00
 0.23575  0.0000000E+00
 0.31625  0.0000000E+00
 0.39675  0.0000000E+00
 0.47725  0.0000000E+00
 0.55775  0.0000000E+00
 0.63825  0.0000000E+00
 0.71875  0.0000000E+00
 0.79925  0.0000000E+00
 0.87975  0.0000000E+00
 0.96025  0.0000000E+00
 1.04075  0.0000000E+00
 1.12125  0.0000000E+00
 1.20175  0.0000000E+00
 1.28225  0.0000000E+00
 1.36275  0.0000000E+00
 1.44325  0.0000000E+00
 1.52375  0.0000000E+00
 1.60425  0.0000000E+00
 1.68475  0.0000000E+00
 1.76525  0.0000000E+00
 1.84575  0.0000000E+00
 1.92625  0.0000000E+00
 2.00675  0.0000000E+00
 2.08725  0.0000000E+00
 2.16775  0.0000000E+00
 2.24825  0.0000000E+00
 2.32875  0.0000000E+00
 2.40925  0.0000000E+00
 2.48975  0.0000000E+00
 2.57025  0.0000000E+00
 2.65075  0.0000000E+00
 2.73125  0.0000000E+00
 2.81175  0.0000000E+00
 2.89225  35.0249
 2.97275  35.4267
 3.05325  36.6152
 3.13375  35.6398
 3.21425  36.3215
 3.29475  34.5664
 3.37525  34.0431
 3.45575  34.0375
 3.53625  34.1738
 3.61675  33.5378
 3.69725  33.1414
 3.77775  33.231
 3.85825  32.9698
 3.93875  32.6943
 4.01925  32.9184
 4.09975  32.018
 4.18025  32.3417
 4.26075  32.3259
 4.34125  32.5437
 4.42175  32.2512
 4.50225  31.9877
 4.58275  32.6547
 4.66325  32.8244
 4.74375  32.8537
 4.82425  32.9147
 4.90475  32.9636
 4.98525  33.2492
 5.06575  33.829
 5.14625  33.9212
 5.22675  33.9086
 5.30725  34.4462
 5.38775  34.4331
 5.46825  34.8329
 5.54875  35.1149
 5.62925  34.9009
 5.70975  35.2632
 5.79025  35.7949
 5.87075  36.0029
 5.95125  37.7716
 6.03175  37.1411
 6.11225  36.8095
 6.19275  36.9324
 6.27325  37.5013
 6.35375  38.1683
 6.43425  38.6424
 6.51475  39.43
 6.59525  39.8035
 6.67575  40.263
 6.75625  40.591
 6.83675  41.2883
 6.91725  41.9483
 6.99775  42.4686
 7.07825  42.9206
 7.15875  43.4619
 7.23925  43.5005
 7.31975  44.0466
 7.40025  44.0711
 7.48075  44.1931
 7.56125  44.4568
 7.64175  44.5767
 7.72225  44.4792
 7.80275  44.3737
 7.88325  44.1668
 7.96375  43.7098
 8.04425  43.298
 8.12475  42.7504
 8.20525  41.953
 8.28575  41.2981
 8.36625  40.2763
 8.44675  38.8599
 8.52725  37.7729
 8.60775  36.326
 8.68825  35.3701
 8.76875  33.7808
 8.84925  32.9864
 8.92975  32.1222
 9.01025  30.9317
 9.09075  29.8967
 9.17125  29.0488
 9.25175  28.2133
 9.33225  27.5628
 9.41275  27.1396
 9.49325  26.5907
 9.57375  25.9904
 9.65425  25.6845
 9.73475  25.2058
 9.81525  24.9132
 9.89575  24.6821
 9.97625  24.4952
 10.0567  24.0668
 10.1373  24.1173
 10.2178  23.7296
 10.2982  23.5427
 10.3788  23.4133
 10.4593  23.2351
 10.5397  23.1744
 10.6203  23.1209
 10.7007  23.0564
 10.7813  22.9339
 10.8618  22.7558
 10.9422  22.7282
 11.0228  22.7054
 11.1033  22.5558
 11.1837  22.5791
 11.2643  22.3724
 11.3447  22.4629
 11.4253  22.8596
 11.5058  22.4279
 11.5862  23.5053
 11.6668  22.4733
 11.7473  22.4274
 11.8277  22.3517
 11.9083  22.2543
 11.9887  22.8266
 12.0693  23.9876
 12.1498  23.3359
 12.2302  22.5248
 12.3108  22.6654
 12.3913  22.6031
 12.4718  22.7062
 12.5523  22.5219
 12.6328  22.6742
 12.7133  22.8395
 12.7938  23.2122
 12.8742  23.4174
 12.9548  23.6172
 13.0353  24.1643
 13.1158  24.8432
 13.1963  25.7557
 13.2768  26.6392
 13.3573  27.5629
 13.4378  28.5134
 13.5183  29.1969
 13.5988  29.6792
 13.6793  29.7671
 13.7598  29.3162
 13.8403  28.8083
 13.9208  29.9926
 14.0013  28.922
 14.0818  27.4957
 14.1623  26.8806
 14.2428  26.5452
 14.3233  26.159
 14.4038  25.9954
 14.4843  25.5805
 14.5648  25.4916
 14.6453  25.1651
 14.7258  24.9284
 14.8063  24.9826
 14.8868  24.7909
 14.9673  24.6707
 15.0478  24.7498
 15.1283  24.706
 15.2088  25.2585
 15.2892  24.5212
 15.3698  24.3692
 15.4503  24.5172
 15.5308  24.4344
 15.6113  24.4758
 15.6918  24.5785
 15.7723  24.477
 15.8528  24.5517
 15.9332  24.5944
 16.0138  24.5365
 16.0943  24.65
 16.1748  24.8435
 16.2553  25.5756
 16.3358  24.8763
 16.4163  24.7186
 16.4967  24.5568
 16.5773  24.4995
 16.6578  24.4835
 16.7383  24.3312
 16.8188  24.2464
 16.8992  24.3488
 16.9798  24.1472
 17.0603  24.1172
 17.1408  24.1068
 17.2213  24.1118
 17.3017  24.1695
 17.3823  23.9347
 17.4628  23.9048
 17.5433  23.8363
 17.6238  23.7044
 17.7042  23.7797
 17.7847  23.7735
 17.8653  23.7373
 17.9458  23.6953
 18.0263  23.9692
 18.1068  24.1014
 18.1872  23.637
 18.2678  23.4498
 18.3483  23.5833
 18.4288  23.5406
 18.5093  23.4603
 18.5897  23.5741
 18.6703  23.5349
 18.7508  23.3876
 18.8313  23.4727
 18.9118  23.5044
 18.9922  23.5528
 19.0727  23.5175
 19.1533  23.4767
 19.2338  23.3892
 19.3143  23.494
 19.3948  23.5242
 19.4752  23.6831
 19.5558  23.6735
 19.6363  23.7432
 19.7168  24.5424
 19.7973  24.0569
 19.8777  25.4668
 19.9582  23.7168
 20.0388  23.6238
 20.1193  23.6025
 20.1998  23.6806
 20.2803  23.668
 20.3607  23.7141
 20.4413  23.6643
 20.5218  23.6782
 20.6023  23.7524
 20.6828  23.8104
 20.7632  24.509
 20.8438  23.9769
 20.9243  23.8499
 21.0048  23.8246
 21.0853  23.7151
 21.1658  23.7365
 21.2462  23.8962
 21.3268  23.8614
 21.4073  23.9071
 21.4878  23.9039
 21.5683  24.0387
 21.6487  24.0196
 21.7293  24.0599
 21.8098  24.1888
 21.8903  24.0498
 21.9708  24.1371
 22.0512  24.1525
 22.1318  24.3553
 22.2123  24.3021
 22.2928  24.4523
 22.3733  24.4923
 22.4538  24.6265
 22.5343  24.6583
 22.6148  24.8334
 22.6953  25.0308
 22.7758  25.194
 22.8563  25.4962
 22.9367  25.8317
 22.9943  26.0459

File: Data_0009.chi
F:\20151113_APS_34IDE\\Brian\Particle1\OCV\Data_0009.tif
2-Theta Angle (Degrees)
Intensity
       2000
 0.07475  0.0000000E+00
 0.15525  0.0000000E+00
 0.23575  0.0000000E+00
 0.31625  0.0000000E+00
 0.39675  0.0000000E+00
 0.47725  0.0000000E+00
 0.55775  0.0000000E+00
 0.63825  0.0000000E+00
 0.71875  0.0000000E+00
 0.79925  0.0000000E+00
 0.87975  0.0000000E+00
 0.96025  0.0000000E+00
 1.04075  0.0000000E+00
 1.12125  0.0000000E+00
 1.20175  0.0000000E+00
 1.28225  0.0000000E+00
 1.36275  0.0000000E+00
 1.44325  0.0000000E+00
 1.52375  0.0000000E+00
 1.60425  0.0000000E+00
 1.68475  0.0000000E+00
 1.76525  0.0000000E+00
 1.84575  0.0000000E+00
 1.92625  0.0000000E+00
 2.00675  0.0000000E+00
 2.08725  0.0000000E+00
 2.16775  0.0000000E+00
 2.24825  0.0000000E+00
 2.32875  0.0000000E+00
 2.40925  0.0000000E+00
 2.48975  0.0000000E+00
 2.57025  0.0000000E+00
 2.65075  0.0000000E+00
 2.73125  0.0000000E+00
 2.81175  0.0000000E+00
 2.89225  35.0486
 2.97275  35.4318
 3.05325  35.9516
 3.13375  35.1269
 3.21425  35.556
 3.29475  35.1412
 3.37525  34.8836
 3.45575  33.7812
 3.53625  34.7465
 3.61675  33.7951
 3.69725  33.0455
 3.77775  33.0975
 3.85825  32.8721
 3.93875  32.2633
 4.01925  32.8401
 4.09975  32.4197
 4.18025  32.399
 4.26075  31.825
 4.34125  31.8717
 4.42175  32.3747
 4.50225  32.3575
 4.58275  32.6906
 4.66325  33.0608
 4.74375  32.886
 4.82425  32.7671
 4.90475  33.0059
 4.98525  32.8306
 5.06575  33.1362
 5.14625  33.2269
 5.22675  33.8127
 5.30725  34.2515
 5.38775  34.5486
 5.46825  34.9211
 5.54875  34.7145
 5.62925  35.3831
 5.70975  35.9358
 5.79025  35.5246
 5.87075  36.2539
 5.95125  40.0864
 6.03175  42.4897
 6.11225  36.9664
 6.19275  37.2586
 6.27325  37.2976
 6.35375  38.2013
 6.43425  38.4428
 6.51475  39.0494
 6.59525  39.7019
 6.67575  40.1381
 6.75625  40.7445
 6.83675  41.5866
 6.91725  41.6042
 6.99775  42.105
 7.07825  42.7276
 7.15875  43.0953
 7.23925  43.4167
 7.31975  43.6976
 7.40025  44.1022
 7.48075  44.1601
 7.56125  44.4065
 7.64175  44.4448
 7.72225  44.4888
 7.80275  44.2176
 7.88325  43.9634
 7.96375  43.6902
 8.04425  43.2944
 8.12475  42.8902
 8.20525  42.0664
 8.28575  41.1145
 8.36625  39.8623
 8.44675  39.0192
 8.52725  37.8001
 8.60775  36.4117
 8.68825  35.1553
 8.76875  34.0609
 8.84925  32.9818
 8.92975  31.8236
 9.01025  30.7606
 9.09075  29.6896
 9.17125  29.082
 9.25175  28.2304
 9.33225  27.4532
 9.41275  27.142
 9.49325  26.6345
 9.57375  26.0799
 9.65425  25.5743
 9.73475  25.3176
 9.81525  24.9973
 9.89575  24.5206
 9.97625  24.2564
 10.0567  24.0392
 10.1373  23.8268
 10.2178  23.8322
 10.2982  23.4551
 10.3788  23.3135
 10.4593  23.1762
 10.5397  23.0644
 10.6203  23.1355
 10.7007  22.7729
 10.7813  22.8505
 10.8618  22.5985
 10.9422  22.6489
 11.0228  22.4008
 11.1033  22.5086
 11.1837  22.457
 11.2643  22.26
 11.3447  22.4015
 11.4253  22.8213
 11.5058  22.4024
 11.5862  24.8851
 11.6668  22.7981
 11.7473  22.4561
 11.8277  22.2799
 11.9083  22.3446
 11.9887  22.5006
 12.0693  23.1063
 12.1498  22.9408
 12.2302  22.2943
 12.3108  22.471
 12.3913  22.4277
 12.4718  22.5131
 12.5523  22.5164
 12.6328  22.699
 12.7133  22.8428
 12.7938  23.0948
 12.8742  23.2958
 12.9548  23.7365
 13.0353  24.2087
 13.1158  24.7947
 13.1963  25.5121
 13.2768  26.5179
 13.3573  27.5111
 13.4378  28.5112
 13.5183  29.2562
 13.5988  29.7054
 13.6793  29.5705
 13.7598  29.2527
 13.8403  28.8366
 13.9208  29.0933
 14.0013  28.2061
 14.0818  27.2588
 14.1623  26.9252
 14.2428  26.4199
 14.3233  26.0374
 14.4038  25.8561
 14.4843  25.4713
 14.5648  25.5183
 14.6453  25.3348
 14.7258  25.0328
 14.8063  24.8798
 14.8868  24.838
 14.9673  24.8591
 15.0478  24.6732
 15.1283  24.7582
 15.2088  25.4389
 15.2892  24.5408
 15.3698  24.4032
 15.4503  25.4
 15.5308  24.4177
 15.6113  24.3707
 15.6918  24.3491
 15.7723  24.4801
 15.8528  24.3708
 15.9332  24.4486
 16.0138  24.6108
 16.0943  24.5346
 16.1748  24.621
 16.2553  25.3691
 16.3358  24.9461
 16.4163  24.6538
 16.4967  24.5206
 16.5773  24.5423
 16.6578  24.3234
 16.7383  24.4593
 16.8188  24.3608
 16.8992  24.2053
 16.9798  24.2
 17.0603  24.1687
 17.1408  24.1415
 17.2213  24.05
 17.3017  23.9603
 17.3823  23.8485
 17.4628  23.8908
 17.5433  23.7914
 17.6238  23.7785
 17.7042  23.6577
 17.7847  23.6596
 17.8653  23.6215
 17.9458  23.7058
 18.0263  23.8612
 18.1068  25.1601
 18.1872  23.6476
 18.2678  23.4308
 18.3483  23.468
 18.4288  23.3906
 18.5093  23.439
 18.5897  23.4444
 18.6703  23.4291
 18.7508  23.2993
 18.8313  23.4299
 18.9118  23.3922
 18.9922  23.3473
 19.0727  23.5088
 19.1533  23.3077
 19.2338  23.4956
 19.3143  23.6639
 19.3948  23.5231
 19.4752  23.409
 19.5558  23.575
 19.6363  23.894
 19.7168  24.7101
 19.7973  25.4949
 19.8777  29.6571
 19.9582  23.9781
 20.0388  23.638
 20.1193  23.7174
 20.1998  23.6879
 20.2803  23.5949
 20.3607  23.5956
 20.4413  23.4787
 20.5218  23.5714
 20.6023  23.5701
 20.6828  23.6708
 20.7632  24.1544
 20.8438  23.7301
 20.9243  23.6162
 21.0048  23.703
 21.0853  23.6872
 21.1658  23.7128
 21.2462  23.7701
 21.3268  23.6361
 21.4073  23.7599
 21.4878  23.8384
 21.5683  23.9143
 21.6487  23.9233
 21.7293  23.9058
 21.8098  23.9475
 21.8903  24.0278
 21.9708  24.061
 22.0512  24.1438
 22.1318  24.1244
 22.2123  24.0823
 22.2928  24.2979
 22.3733  24.3078
 22.4538  24.4362
 22.5343  24.694
 22.6148  24.6807
 22.6953  24.8421
 22.7758  25.1022
 22.8563  25.3792
 22.9367  25.7608
 22.9943  26.2448