Folder: scimap-tests/test-data-xrd/xrd-map-34-ID-E (part 14)

File: Data_0057.chi
F:\20151113_APS_34IDE\\Brian\Particle1\OCV\Data_0057.tif
2-Theta Angle (Degrees)
Intensity
       2000
 0.07475  0.0000000E+00
 0.15525  0.0000000E+00
 0.23575  0.0000000E+00
 0.31625  0.0000000E+00
 0.39675  0.0000000E+00
 0.47725  0.0000000E+00
 0.55775  0.0000000E+00
 0.63825  0.0000000E+00
 0.71875  0.0000000E+00
 0.79925  0.0000000E+00
 0.87975  0.0000000E+00
 0.96025  0.0000000E+00
 1.04075  0.0000000E+00
 1.12125  0.0000000E+00
 1.20175  0.0000000E+00
 1.28225  0.0000000E+00
 1.36275  0.0000000E+00
 1.44325  0.0000000E+00
 1.52375  0.0000000E+00
 1.60425  0.0000000E+00
 1.68475  0.0000000E+00
 1.76525  0.0000000E+00
 1.84575  0.0000000E+00
 1.92625  0.0000000E+00
 2.00675  0.0000000E+00
 2.08725  0.0000000E+00
 2.16775  0.0000000E+00
 2.24825  0.0000000E+00
 2.32875  0.0000000E+00
 2.40925  0.0000000E+00
 2.48975  0.0000000E+00
 2.57025  0.0000000E+00
 2.65075  0.0000000E+00
 2.73125  0.0000000E+00
 2.81175  0.0000000E+00
 2.89225  34.626
 2.97275  34.7188
 3.05325  35.7298
 3.13375  34.9397
 3.21425  35.7542
 3.29475  34.3813
 3.37525  35.0298
 3.45575  33.685
 3.53625  33.9241
 3.61675  33.319
 3.69725  33.0569
 3.77775  33.2631
 3.85825  32.4143
 3.93875  32.6614
 4.01925  32.8594
 4.09975  32.2323
 4.18025  32.2065
 4.26075  32.5859
 4.34125  32.2842
 4.42175  32.2332
 4.50225  32.2354
 4.58275  32.8167
 4.66325  32.7411
 4.74375  32.9222
 4.82425  32.7134
 4.90475  32.6767
 4.98525  33.0966
 5.06575  33.3204
 5.14625  33.4423
 5.22675  34.1341
 5.30725  34.1732
 5.38775  34.2076
 5.46825  34.5337
 5.54875  34.9438
 5.62925  35.4776
 5.70975  35.66
 5.79025  37.0978
 5.87075  38.4314
 5.95125  92.3735
 6.03175  64.2366
 6.11225  38.5646
 6.19275  37.6719
 6.27325  37.4817
 6.35375  38.1155
 6.43425  38.6779
 6.51475  39.122
 6.59525  40.0265
 6.67575  40.0097
 6.75625  40.9173
 6.83675  41.4586
 6.91725  41.7511
 6.99775  41.9737
 7.07825  42.7656
 7.15875  42.7774
 7.23925  43.295
 7.31975  43.4854
 7.40025  44.0753
 7.48075  44.1491
 7.56125  44.1566
 7.64175  44.1304
 7.72225  44.1584
 7.80275  44.3011
 7.88325  43.6393
 7.96375  43.4782
 8.04425  43.0752
 8.12475  42.4546
 8.20525  41.5293
 8.28575  40.8704
 8.36625  39.7059
 8.44675  38.5445
 8.52725  37.4934
 8.60775  36.4311
 8.68825  34.9267
 8.76875  33.8672
 8.84925  32.6946
 8.92975  31.5985
 9.01025  30.4786
 9.09075  29.8309
 9.17125  28.9201
 9.25175  28.3019
 9.33225  27.4646
 9.41275  26.8113
 9.49325  26.4952
 9.57375  26.0079
 9.65425  25.3744
 9.73475  25.0938
 9.81525  24.9538
 9.89575  24.6928
 9.97625  24.3724
 10.0567  24.169
 10.1373  23.8678
 10.2178  23.773
 10.2982  23.6101
 10.3788  23.5025
 10.4593  23.2315
 10.5397  23.1739
 10.6203  22.954
 10.7007  23.0279
 10.7813  23.0294
 10.8618  22.7655
 10.9422  22.8665
 11.0228  22.686
 11.1033  22.5762
 11.1837  22.6709
 11.2643  22.5286
 11.3447  22.6401
 11.4253  23.1719
 11.5058  24.2561
 11.5862  45.8146
 11.6668  25.7359
 11.7473  23.0584
 11.8277  22.8164
 11.9083  23.1263
 11.9887  29.4212
 12.0693  24.2011
 12.1498  23.6243
 12.2302  22.5838
 12.3108  22.7168
 12.3913  22.8063
 12.4718  22.7681
 12.5523  22.751
 12.6328  22.8616
 12.7133  22.9279
 12.7938  23.2253
 12.8742  23.4091
 12.9548  23.8735
 13.0353  24.2789
 13.1158  24.9123
 13.1963  25.6621
 13.2768  26.7613
 13.3573  27.6504
 13.4378  28.4598
 13.5183  29.4319
 13.5988  29.7892
 13.6793  29.8532
 13.7598  29.6044
 13.8403  29.6539
 13.9208  35.8188
 14.0013  40.4567
 14.0818  28.2954
 14.1623  27.2876
 14.2428  26.7904
 14.3233  26.292
 14.4038  25.9764
 14.4843  25.729
 14.5648  25.6487
 14.6453  25.4003
 14.7258  25.3811
 14.8063  25.0751
 14.8868  25.0654
 14.9673  24.7723
 15.0478  24.8064
 15.1283  25.2665
 15.2088  27.3647
 15.2892  24.8362
 15.3698  24.6292
 15.4503  24.5317
 15.5308  24.6158
 15.6113  24.6205
 15.6918  24.5641
 15.7723  24.4944
 15.8528  24.5286
 15.9332  24.7412
 16.0138  24.748
 16.0943  24.8845
 16.1748  25.1025
 16.2553  27.4832
 16.3358  25.0557
 16.4163  24.7806
 16.4967  24.7876
 16.5773  24.6197
 16.6578  24.5401
 16.7383  24.4321
 16.8188  24.4068
 16.8992  24.6089
 16.9798  24.2916
 17.0603  24.2388
 17.1408  24.209
 17.2213  24.216
 17.3017  24.0975
 17.3823  23.9521
 17.4628  24.0462
 17.5433  24.0224
 17.6238  23.9396
 17.7042  23.8804
 17.7847  24.0347
 17.8653  23.9786
 17.9458  23.9898
 18.0263  24.7216
 18.1068  29.4414
 18.1872  24.7039
 18.2678  23.8365
 18.3483  23.6869
 18.4288  23.7797
 18.5093  23.6883
 18.5897  23.6572
 18.6703  23.5834
 18.7508  23.6078
 18.8313  23.5102
 18.9118  23.5534
 18.9922  23.6047
 19.0727  23.6244
 19.1533  23.5512
 19.2338  23.4281
 19.3143  23.5624
 19.3948  23.631
 19.4752  23.7312
 19.5558  23.8992
 19.6363  24.5891
 19.7168  28.1244
 19.7973  26.7583
 19.8777  31.7324
 19.9582  24.6338
 20.0388  24.1277
 20.1193  23.8598
 20.1998  23.7761
 20.2803  23.8247
 20.3607  23.8508
 20.4413  23.797
 20.5218  23.7463
 20.6023  24.0329
 20.6828  24.3817
 20.7632  28.0385
 20.8438  24.584
 20.9243  24.0807
 21.0048  23.9803
 21.0853  23.9675
 21.1658  23.9311
 21.2462  23.9537
 21.3268  23.9765
 21.4073  23.9012
 21.4878  24.0166
 21.5683  24.0536
 21.6487  24.1359
 21.7293  24.121
 21.8098  24.2006
 21.8903  24.2826
 21.9708  24.1727
 22.0512  24.3001
 22.1318  24.4271
 22.2123  24.4335
 22.2928  24.4683
 22.3733  24.6735
 22.4538  24.7587
 22.5343  24.9588
 22.6148  25.0494
 22.6953  25.2206
 22.7758  25.3769
 22.8563  25.4898
 22.9367  26.0083
 22.9943  26.4326

File: Data_0058.chi
F:\20151113_APS_34IDE\\Brian\Particle1\OCV\Data_0058.tif
2-Theta Angle (Degrees)
Intensity
       2000
 0.07475  0.0000000E+00
 0.15525  0.0000000E+00
 0.23575  0.0000000E+00
 0.31625  0.0000000E+00
 0.39675  0.0000000E+00
 0.47725  0.0000000E+00
 0.55775  0.0000000E+00
 0.63825  0.0000000E+00
 0.71875  0.0000000E+00
 0.79925  0.0000000E+00
 0.87975  0.0000000E+00
 0.96025  0.0000000E+00
 1.04075  0.0000000E+00
 1.12125  0.0000000E+00
 1.20175  0.0000000E+00
 1.28225  0.0000000E+00
 1.36275  0.0000000E+00
 1.44325  0.0000000E+00
 1.52375  0.0000000E+00
 1.60425  0.0000000E+00
 1.68475  0.0000000E+00
 1.76525  0.0000000E+00
 1.84575  0.0000000E+00
 1.92625  0.0000000E+00
 2.00675  0.0000000E+00
 2.08725  0.0000000E+00
 2.16775  0.0000000E+00
 2.24825  0.0000000E+00
 2.32875  0.0000000E+00
 2.40925  0.0000000E+00
 2.48975  0.0000000E+00
 2.57025  0.0000000E+00
 2.65075  0.0000000E+00
 2.73125  0.0000000E+00
 2.81175  0.0000000E+00
 2.89225  35.5107
 2.97275  35.7302
 3.05325  36.6462
 3.13375  36.0965
 3.21425  36.0174
 3.29475  34.6356
 3.37525  35.4744
 3.45575  33.8895
 3.53625  34.1452
 3.61675  32.9616
 3.69725  33.175
 3.77775  34.5875
 3.85825  32.5624
 3.93875  32.5879
 4.01925  32.3188
 4.09975  32.4102
 4.18025  32.3412
 4.26075  32.7516
 4.34125  32.2704
 4.42175  32.3603
 4.50225  32.4405
 4.58275  32.3803
 4.66325  33.1087
 4.74375  32.9972
 4.82425  32.4973
 4.90475  32.6349
 4.98525  32.6199
 5.06575  33.005
 5.14625  33.4661
 5.22675  34.416
 5.30725  34.3203
 5.38775  34.6117
 5.46825  34.9013
 5.54875  35.0141
 5.62925  35.5393
 5.70975  35.888
 5.79025  36.021
 5.87075  36.9989
 5.95125  51.5817
 6.03175  50.2515
 6.11225  37.669
 6.19275  37.501
 6.27325  37.4398
 6.35375  38.1124
 6.43425  38.6689
 6.51475  39.3545
 6.59525  39.6094
 6.67575  40.1524
 6.75625  40.8252
 6.83675  41.5331
 6.91725  41.77
 6.99775  42.2669
 7.07825  42.9757
 7.15875  43.2552
 7.23925  43.663
 7.31975  43.7164
 7.40025  43.6488
 7.48075  44.2623
 7.56125  44.3437
 7.64175  44.3667
 7.72225  44.3639
 7.80275  44.4313
 7.88325  43.9851
 7.96375  43.6103
 8.04425  43.5687
 8.12475  42.7401
 8.20525  41.721
 8.28575  41.0661
 8.36625  39.8981
 8.44675  38.8589
 8.52725  37.5093
 8.60775  36.3046
 8.68825  35.4021
 8.76875  33.9821
 8.84925  32.8935
 8.92975  31.6834
 9.01025  30.6326
 9.09075  29.7715
 9.17125  28.9979
 9.25175  28.1866
 9.33225  27.5661
 9.41275  26.8282
 9.49325  26.5118
 9.57375  26.0626
 9.65425  25.6946
 9.73475  25.2136
 9.81525  25.1747
 9.89575  24.5041
 9.97625  24.2379
 10.0567  24.3965
 10.1373  24.0006
 10.2178  24.2771
 10.2982  23.6812
 10.3788  23.547
 10.4593  23.4516
 10.5397  23.1184
 10.6203  23.1067
 10.7007  23.069
 10.7813  22.9906
 10.8618  22.8303
 10.9422  22.82
 11.0228  22.7738
 11.1033  22.807
 11.1837  22.7017
 11.2643  22.7763
 11.3447  22.7622
 11.4253  23.0478
 11.5058  23.1562
 11.5862  28.4132
 11.6668  24.0661
 11.7473  22.8112
 11.8277  22.7138
 11.9083  22.7697
 11.9887  24.2684
 12.0693  24.5441
 12.1498  24.3156
 12.2302  22.819
 12.3108  22.7326
 12.3913  22.7046
 12.4718  22.682
 12.5523  22.6875
 12.6328  22.8963
 12.7133  23.1257
 12.7938  23.1162
 12.8742  23.5626
 12.9548  23.7676
 13.0353  24.3358
 13.1158  25.0137
 13.1963  25.6488
 13.2768  26.8794
 13.3573  27.9051
 13.4378  28.5169
 13.5183  29.4957
 13.5988  29.9407
 13.6793  29.8582
 13.7598  29.769
 13.8403  29.4128
 13.9208  33.2195
 14.0013  32.1282
 14.0818  27.98
 14.1623  27.2466
 14.2428  26.5982
 14.3233  26.3029
 14.4038  26.1305
 14.4843  26.0095
 14.5648  25.8271
 14.6453  25.5125
 14.7258  25.3563
 14.8063  25.0423
 14.8868  25.1414
 14.9673  25.0746
 15.0478  25.2017
 15.1283  26.1934
 15.2088  31.0882
 15.2892  25.2436
 15.3698  24.9974
 15.4503  24.7751
 15.5308  24.6764
 15.6113  24.6757
 15.6918  24.6927
 15.7723  24.6724
 15.8528  24.7208
 15.9332  24.8786
 16.0138  24.8868
 16.0943  24.9681
 16.1748  25.089
 16.2553  27.1475
 16.3358  25.32
 16.4163  25.0338
 16.4967  24.8068
 16.5773  24.6804
 16.6578  24.6334
 16.7383  24.5932
 16.8188  24.5115
 16.8992  24.439
 16.9798  24.4229
 17.0603  24.168
 17.1408  24.3298
 17.2213  24.2257
 17.3017  24.2442
 17.3823  24.1531
 17.4628  24.0644
 17.5433  24.1678
 17.6238  24.206
 17.7042  24.0409
 17.7847  24.0543
 17.8653  24.0096
 17.9458  24.1001
 18.0263  25.3081
 18.1068  27.931
 18.1872  24.5744
 18.2678  23.9504
 18.3483  23.8937
 18.4288  23.8387
 18.5093  23.7778
 18.5897  23.7976
 18.6703  23.7387
 18.7508  24.2291
 18.8313  23.6169
 18.9118  23.7669
 18.9922  23.5392
 19.0727  23.7622
 19.1533  23.8329
 19.2338  23.6809
 19.3143  23.921
 19.3948  23.857
 19.4752  23.9863
 19.5558  24.1377
 19.6363  24.502
 19.7168  28.3037
 19.7973  27.183
 19.8777  34.6964
 19.9582  25.1657
 20.0388  24.2461
 20.1193  24.0833
 20.1998  24.0085
 20.2803  23.9196
 20.3607  23.9571
 20.4413  24.0237
 20.5218  23.8072
 20.6023  24.0987
 20.6828  24.5823
 20.7632  26.7137
 20.8438  24.6316
 20.9243  24.2061
 21.0048  24.2152
 21.0853  24.0601
 21.1658  23.996
 21.2462  24.1485
 21.3268  24.0998
 21.4073  24.1845
 21.4878  24.2624
 21.5683  24.0568
 21.6487  24.4254
 21.7293  24.4398
 21.8098  24.3869
 21.8903  24.3763
 21.9708  24.5008
 22.0512  24.461
 22.1318  24.4346
 22.2123  24.6905
 22.2928  24.791
 22.3733  24.7089
 22.4538  25.0287
 22.5343  25.0657
 22.6148  25.2412
 22.6953  25.6346
 22.7758  25.5947
 22.8563  26.035
 22.9367  26.6013
 22.9943  28.1002

File: Data_0059.chi
F:\20151113_APS_34IDE\\Brian\Particle1\OCV\Data_0059.tif
2-Theta Angle (Degrees)
Intensity
       2000
 0.07475  0.0000000E+00
 0.15525  0.0000000E+00
 0.23575  0.0000000E+00
 0.31625  0.0000000E+00
 0.39675  0.0000000E+00
 0.47725  0.0000000E+00
 0.55775  0.0000000E+00
 0.63825  0.0000000E+00
 0.71875  0.0000000E+00
 0.79925  0.0000000E+00
 0.87975  0.0000000E+00
 0.96025  0.0000000E+00
 1.04075  0.0000000E+00
 1.12125  0.0000000E+00
 1.20175  0.0000000E+00
 1.28225  0.0000000E+00
 1.36275  0.0000000E+00
 1.44325  0.0000000E+00
 1.52375  0.0000000E+00
 1.60425  0.0000000E+00
 1.68475  0.0000000E+00
 1.76525  0.0000000E+00
 1.84575  0.0000000E+00
 1.92625  0.0000000E+00
 2.00675  0.0000000E+00
 2.08725  0.0000000E+00
 2.16775  0.0000000E+00
 2.24825  0.0000000E+00
 2.32875  0.0000000E+00
 2.40925  0.0000000E+00
 2.48975  0.0000000E+00
 2.57025  0.0000000E+00
 2.65075  0.0000000E+00
 2.73125  0.0000000E+00
 2.81175  0.0000000E+00
 2.89225  35.8095
 2.97275  37.3234
 3.05325  35.0812
 3.13375  35.2191
 3.21425  35.5832
 3.29475  34.601
 3.37525  34.3503
 3.45575  34.5452
 3.53625  33.0054
 3.61675  33.4793
 3.69725  33.1328
 3.77775  33.2763
 3.85825  32.5822
 3.93875  32.8513
 4.01925  32.4469
 4.09975  32.2116
 4.18025  32.2318
 4.26075  31.5194
 4.34125  32.0805
 4.42175  32.5327
 4.50225  32.4135
 4.58275  32.4677
 4.66325  32.7894
 4.74375  32.8714
 4.82425  32.408
 4.90475  33.1523
 4.98525  32.7949
 5.06575  33.3954
 5.14625  33.5842
 5.22675  34.2543
 5.30725  33.9973
 5.38775  34.1393
 5.46825  34.9514
 5.54875  34.8616
 5.62925  35.3185
 5.70975  35.5433
 5.79025  35.9593
 5.87075  37.5827
 5.95125  58.8041
 6.03175  61.9847
 6.11225  38.1556
 6.19275  37.4293
 6.27325  37.745
 6.35375  37.7884
 6.43425  38.3664
 6.51475  38.9335
 6.59525  39.1899
 6.67575  40.0428
 6.75625  40.5524
 6.83675  41.342
 6.91725  41.3767
 6.99775  42.0598
 7.07825  42.5559
 7.15875  42.989
 7.23925  43.1623
 7.31975  43.4295
 7.40025  43.6573
 7.48075  43.776
 7.56125  44.3264
 7.64175  44.3631
 7.72225  43.9107
 7.80275  43.8786
 7.88325  43.7689
 7.96375  43.0638
 8.04425  43.041
 8.12475  42.3191
 8.20525  41.6922
 8.28575  40.5185
 8.36625  39.7813
 8.44675  38.7179
 8.52725  37.3855
 8.60775  35.9315
 8.68825  34.953
 8.76875  33.7811
 8.84925  32.3991
 8.92975  31.4992
 9.01025  30.4743
 9.09075  29.4728
 9.17125  28.6734
 9.25175  28.01
 9.33225  27.3199
 9.41275  26.8555
 9.49325  26.3737
 9.57375  26.1231
 9.65425  25.4357
 9.73475  25.2316
 9.81525  24.828
 9.89575  24.5222
 9.97625  24.2963
 10.0567  24.1771
 10.1373  23.9235
 10.2178  23.7747
 10.2982  23.676
 10.3788  23.4154
 10.4593  23.4131
 10.5397  23.0994
 10.6203  22.9955
 10.7007  22.9607
 10.7813  22.8732
 10.8618  22.8883
 10.9422  22.6378
 11.0228  22.619
 11.1033  22.5507
 11.1837  22.4833
 11.2643  22.3952
 11.3447  22.5164
 11.4253  22.7742
 11.5058  22.9263
 11.5862  27.5348
 11.6668  23.5214
 11.7473  22.6711
 11.8277  22.9074
 11.9083  23.0146
 11.9887  27.5034
 12.0693  26.7686
 12.1498  35.0712
 12.2302  23.32
 12.3108  22.8057
 12.3913  22.7679
 12.4718  22.7609
 12.5523  22.8634
 12.6328  22.8642
 12.7133  23.0127
 12.7938  23.1035
 12.8742  23.4383
 12.9548  23.632
 13.0353  24.1472
 13.1158  24.8819
 13.1963  25.6807
 13.2768  26.6806
 13.3573  27.7525
 13.4378  28.4613
 13.5183  29.4454
 13.5988  29.8993
 13.6793  29.5972
 13.7598  29.6819
 13.8403  29.9604
 13.9208  41.844
 14.0013  37.6774
 14.0818  28.3483
 14.1623  27.5339
 14.2428  26.6725
 14.3233  26.1858
 14.4038  26.1345
 14.4843  25.7688
 14.5648  25.6554
 14.6453  25.3847
 14.7258  25.2097
 14.8063  25.0962
 14.8868  24.9135
 14.9673  25.0229
 15.0478  25.035
 15.1283  25.2163
 15.2088  27.6005
 15.2892  24.8346
 15.3698  24.6892
 15.4503  24.4381
 15.5308  24.5564
 15.6113  24.5051
 15.6918  24.6504
 15.7723  24.7479
 15.8528  24.7685
 15.9332  24.7598
 16.0138  24.8269
 16.0943  24.8213
 16.1748  24.8617
 16.2553  26.5686
 16.3358  25.0298
 16.4163  24.8171
 16.4967  24.7011
 16.5773  24.708
 16.6578  24.7667
 16.7383  24.662
 16.8188  24.5334
 16.8992  24.407
 16.9798  24.2661
 17.0603  24.1522
 17.1408  24.2654
 17.2213  24.1952
 17.3017  24.2057
 17.3823  24.1407
 17.4628  24.0691
 17.5433  24.0008
 17.6238  24.0058
 17.7042  23.9691
 17.7847  23.9736
 17.8653  23.991
 17.9458  24.1126
 18.0263  25.4148
 18.1068  29.356
 18.1872  25.1026
 18.2678  23.9552
 18.3483  23.7382
 18.4288  23.7819
 18.5093  23.7262
 18.5897  23.751
 18.6703  23.5495
 18.7508  23.5042
 18.8313  23.5927
 18.9118  23.5835
 18.9922  23.6279
 19.0727  23.6842
 19.1533  23.7217
 19.2338  23.6018
 19.3143  23.8089
 19.3948  23.9518
 19.4752  24.1451
 19.5558  24.3197
 19.6363  25.7906
 19.7168  39.2345
 19.7973  27.4383
 19.8777  33.8434
 19.9582  25.0154
 20.0388  24.2037
 20.1193  24.0771
 20.1998  23.8427
 20.2803  23.8854
 20.3607  23.8538
 20.4413  23.8483
 20.5218  23.7121
 20.6023  23.9957
 20.6828  24.2542
 20.7632  26.1353
 20.8438  24.4376
 20.9243  24.2177
 21.0048  23.9168
 21.0853  23.983
 21.1658  24.0772
 21.2462  24.0606
 21.3268  24.0096
 21.4073  24.1989
 21.4878  24.1437
 21.5683  24.5997
 21.6487  24.2338
 21.7293  24.1981
 21.8098  24.2785
 21.8903  24.2804
 21.9708  24.391
 22.0512  24.4214
 22.1318  24.5327
 22.2123  24.4403
 22.2928  24.586
 22.3733  24.7139
 22.4538  24.6985
 22.5343  24.9597
 22.6148  25.0525
 22.6953  25.3061
 22.7758  25.3599
 22.8563  25.7241
 22.9367  26.1758
 22.9943  26.5699

File: Data_0060.chi
F:\20151113_APS_34IDE\\Brian\Particle1\OCV\Data_0060.tif
2-Theta Angle (Degrees)
Intensity
       2000
 0.07475  0.0000000E+00
 0.15525  0.0000000E+00
 0.23575  0.0000000E+00
 0.31625  0.0000000E+00
 0.39675  0.0000000E+00
 0.47725  0.0000000E+00
 0.55775  0.0000000E+00
 0.63825  0.0000000E+00
 0.71875  0.0000000E+00
 0.79925  0.0000000E+00
 0.87975  0.0000000E+00
 0.96025  0.0000000E+00
 1.04075  0.0000000E+00
 1.12125  0.0000000E+00
 1.20175  0.0000000E+00
 1.28225  0.0000000E+00
 1.36275  0.0000000E+00
 1.44325  0.0000000E+00
 1.52375  0.0000000E+00
 1.60425  0.0000000E+00
 1.68475  0.0000000E+00
 1.76525  0.0000000E+00
 1.84575  0.0000000E+00
 1.92625  0.0000000E+00
 2.00675  0.0000000E+00
 2.08725  0.0000000E+00
 2.16775  0.0000000E+00
 2.24825  0.0000000E+00
 2.32875  0.0000000E+00
 2.40925  0.0000000E+00
 2.48975  0.0000000E+00
 2.57025  0.0000000E+00
 2.65075  0.0000000E+00
 2.73125  0.0000000E+00
 2.81175  0.0000000E+00
 2.89225  34.5467
 2.97275  34.6081
 3.05325  34.8371
 3.13375  34.7618
 3.21425  35.255
 3.29475  33.7791
 3.37525  33.8993
 3.45575  34.4459
 3.53625  33.5054
 3.61675  32.4796
 3.69725  32.715
 3.77775  32.6521
 3.85825  31.8911
 3.93875  32.3526
 4.01925  32.3604
 4.09975  31.9361
 4.18025  32.1977
 4.26075  31.66
 4.34125  31.7609
 4.42175  31.9899
 4.50225  32.2524
 4.58275  32.5391
 4.66325  32.5794
 4.74375  32.4033
 4.82425  32.3896
 4.90475  32.3865
 4.98525  32.7244
 5.06575  32.933
 5.14625  33.409
 5.22675  33.6682
 5.30725  34.0092
 5.38775  34.4575
 5.46825  34.7047
 5.54875  34.7959
 5.62925  35.0593
 5.70975  35.8281
 5.79025  36.3932
 5.87075  37.8944
 5.95125  61.616
 6.03175  68.6412
 6.11225  38.1896
 6.19275  37.5
 6.27325  37.5397
 6.35375  38.0249
 6.43425  38.1784
 6.51475  39.0849
 6.59525  39.396
 6.67575  39.7859
 6.75625  40.4216
 6.83675  41.1477
 6.91725  41.5974
 6.99775  42.188
 7.07825  42.6252
 7.15875  43.0049
 7.23925  43.0932
 7.31975  43.4822
 7.40025  43.7864
 7.48075  43.6728
 7.56125  43.7576
 7.64175  44.2302
 7.72225  44.4696
 7.80275  44.0797
 7.88325  43.4125
 7.96375  43.4217
 8.04425  42.8233
 8.12475  42.2996
 8.20525  41.5976
 8.28575  40.7359
 8.36625  39.8014
 8.44675  38.3357
 8.52725  37.4266
 8.60775  35.8299
 8.68825  34.692
 8.76875  33.32
 8.84925  32.6734
 8.92975  31.4754
 9.01025  30.3343
 9.09075  29.758
 9.17125  28.8533
 9.25175  28.1518
 9.33225  27.376
 9.41275  26.7474
 9.49325  26.4248
 9.57375  26.0141
 9.65425  25.398
 9.73475  25.3458
 9.81525  24.9835
 9.89575  24.528
 9.97625  24.5162
 10.0567  24.0607
 10.1373  23.8345
 10.2178  23.7567
 10.2982  23.5341
 10.3788  23.59
 10.4593  23.3245
 10.5397  23.1683
 10.6203  22.8759
 10.7007  22.9767
 10.7813  22.9072
 10.8618  22.7686
 10.9422  22.8263
 11.0228  22.7525
 11.1033  22.5929
 11.1837  22.4656
 11.2643  22.4806
 11.3447  22.478
 11.4253  22.8893
 11.5058  23.0705
 11.5862  28.898
 11.6668  24.0875
 11.7473  22.8574
 11.8277  22.9808
 11.9083  23.4782
 11.9887  32.0869
 12.0693  29.824
 12.1498  58.1054
 12.2302  24.1116
 12.3108  23.3083
 12.3913  22.833
 12.4718  22.9364
 12.5523  22.9501
 12.6328  22.9429
 12.7133  22.9827
 12.7938  23.1327
 12.8742  23.5029
 12.9548  23.6285
 13.0353  24.2539
 13.1158  24.9254
 13.1963  25.6442
 13.2768  26.6902
 13.3573  27.5934
 13.4378  28.5273
 13.5183  29.328
 13.5988  29.6922
 13.6793  29.6932
 13.7598  29.527
 13.8403  29.4645
 13.9208  36.7793
 14.0013  34.9114
 14.0818  27.8151
 14.1623  27.1199
 14.2428  26.679
 14.3233  26.3652
 14.4038  26.0462
 14.4843  25.7576
 14.5648  25.5902
 14.6453  25.3022
 14.7258  25.2872
 14.8063  25.0647
 14.8868  24.9729
 14.9673  24.8264
 15.0478  24.8946
 15.1283  25.6559
 15.2088  29.2174
 15.2892  25.1055
 15.3698  24.845
 15.4503  24.4978
 15.5308  24.5901
 15.6113  24.4393
 15.6918  24.7698
 15.7723  24.6432
 15.8528  24.6553
 15.9332  24.7386
 16.0138  24.6755
 16.0943  24.6539
 16.1748  24.9376
 16.2553  26.327
 16.3358  25.1835
 16.4163  24.6909
 16.4967  24.7119
 16.5773  24.6959
 16.6578  24.564
 16.7383  24.6117
 16.8188  24.4689
 16.8992  24.2672
 16.9798  24.4283
 17.0603  24.241
 17.1408  24.2442
 17.2213  24.1246
 17.3017  24.1332
 17.3823  24.0356
 17.4628  24.1803
 17.5433  23.9761
 17.6238  23.9814
 17.7042  23.888
 17.7847  23.8644
 17.8653  23.9782
 17.9458  24.0664
 18.0263  26.1954
 18.1068  28.3012
 18.1872  24.7992
 18.2678  23.8719
 18.3483  23.8482
 18.4288  23.8127
 18.5093  23.8637
 18.5897  23.7871
 18.6703  23.6087
 18.7508  23.5738
 18.8313  23.5404
 18.9118  23.6123
 18.9922  23.6609
 19.0727  23.5917
 19.1533  23.7367
 19.2338  23.6074
 19.3143  23.6672
 19.3948  23.8259
 19.4752  23.9061
 19.5558  23.9684
 19.6363  24.9139
 19.7168  32.665
 19.7973  26.4556
 19.8777  28.644
 19.9582  24.5545
 20.0388  24.0388
 20.1193  23.9504
 20.1998  23.8377
 20.2803  23.8518
 20.3607  23.7227
 20.4413  24.0808
 20.5218  23.8628
 20.6023  23.913
 20.6828  24.362
 20.7632  26.7205
 20.8438  24.5099
 20.9243  24.0538
 21.0048  24.228
 21.0853  23.9725
 21.1658  23.9193
 21.2462  24.0725
 21.3268  23.9433
 21.4073  23.967
 21.4878  24.0246
 21.5683  24.0687
 21.6487  24.1759
 21.7293  24.1931
 21.8098  24.2016
 21.8903  24.2661
 21.9708  24.2878
 22.0512  24.3282
 22.1318  24.647
 22.2123  24.5012
 22.2928  24.56
 22.3733  24.6606
 22.4538  24.7909
 22.5343  24.847
 22.6148  24.8811
 22.6953  25.1284
 22.7758  25.3217
 22.8563  25.514
 22.9367  26.0007
 22.9943  26.4598