Folder: scimap-tests/test-data-xrd/xrd-map-34-ID-E (part 27)

File: Data_0111.chi
F:\20151113_APS_34IDE\\Brian\Particle1\OCV\Data_0111.tif
2-Theta Angle (Degrees)
Intensity
       2000
 0.07475  0.0000000E+00
 0.15525  0.0000000E+00
 0.23575  0.0000000E+00
 0.31625  0.0000000E+00
 0.39675  0.0000000E+00
 0.47725  0.0000000E+00
 0.55775  0.0000000E+00
 0.63825  0.0000000E+00
 0.71875  0.0000000E+00
 0.79925  0.0000000E+00
 0.87975  0.0000000E+00
 0.96025  0.0000000E+00
 1.04075  0.0000000E+00
 1.12125  0.0000000E+00
 1.20175  0.0000000E+00
 1.28225  0.0000000E+00
 1.36275  0.0000000E+00
 1.44325  0.0000000E+00
 1.52375  0.0000000E+00
 1.60425  0.0000000E+00
 1.68475  0.0000000E+00
 1.76525  0.0000000E+00
 1.84575  0.0000000E+00
 1.92625  0.0000000E+00
 2.00675  0.0000000E+00
 2.08725  0.0000000E+00
 2.16775  0.0000000E+00
 2.24825  0.0000000E+00
 2.32875  0.0000000E+00
 2.40925  0.0000000E+00
 2.48975  0.0000000E+00
 2.57025  0.0000000E+00
 2.65075  0.0000000E+00
 2.73125  0.0000000E+00
 2.81175  0.0000000E+00
 2.89225  36.6234
 2.97275  35.229
 3.05325  35.087
 3.13375  35.3943
 3.21425  35.4789
 3.29475  35.1026
 3.37525  35.2839
 3.45575  33.896
 3.53625  33.965
 3.61675  33.1601
 3.69725  33.3
 3.77775  33.2228
 3.85825  32.7136
 3.93875  32.1168
 4.01925  32.5873
 4.09975  32.6231
 4.18025  32.2848
 4.26075  32.3468
 4.34125  32.1278
 4.42175  31.9439
 4.50225  32.2724
 4.58275  32.3072
 4.66325  33.0298
 4.74375  32.6445
 4.82425  32.4688
 4.90475  32.8351
 4.98525  33.0119
 5.06575  32.9407
 5.14625  33.5906
 5.22675  34.0213
 5.30725  33.538
 5.38775  34.2136
 5.46825  34.5649
 5.54875  34.5689
 5.62925  34.7107
 5.70975  35.2112
 5.79025  35.7437
 5.87075  35.8135
 5.95125  39.283
 6.03175  40.3742
 6.11225  36.4614
 6.19275  36.8485
 6.27325  37.2433
 6.35375  38.0988
 6.43425  37.9393
 6.51475  38.9385
 6.59525  39.7005
 6.67575  40.1242
 6.75625  40.6049
 6.83675  41.372
 6.91725  41.6344
 6.99775  42.0269
 7.07825  42.3482
 7.15875  42.7986
 7.23925  43.311
 7.31975  43.6345
 7.40025  43.761
 7.48075  44.2378
 7.56125  44.263
 7.64175  44.2068
 7.72225  44.2935
 7.80275  44.2401
 7.88325  44.1101
 7.96375  43.4811
 8.04425  43.0782
 8.12475  42.4511
 8.20525  41.4713
 8.28575  40.641
 8.36625  39.7377
 8.44675  38.4049
 8.52725  37.5512
 8.60775  36.3327
 8.68825  35.0487
 8.76875  33.8966
 8.84925  32.6812
 8.92975  31.7839
 9.01025  30.5207
 9.09075  29.7105
 9.17125  28.9635
 9.25175  27.9717
 9.33225  27.6345
 9.41275  27.2087
 9.49325  26.425
 9.57375  25.9164
 9.65425  25.6872
 9.73475  25.3246
 9.81525  24.9322
 9.89575  24.6344
 9.97625  24.366
 10.0567  24.0727
 10.1373  23.8553
 10.2178  23.6557
 10.2982  23.5449
 10.3788  23.4134
 10.4593  23.1574
 10.5397  23.1525
 10.6203  23.1194
 10.7007  22.8837
 10.7813  22.7476
 10.8618  22.7512
 10.9422  22.5273
 11.0228  22.4243
 11.1033  22.4156
 11.1837  22.2816
 11.2643  22.2883
 11.3447  22.3162
 11.4253  22.4868
 11.5058  22.6679
 11.5862  25.1896
 11.6668  23.0288
 11.7473  22.5708
 11.8277  22.3206
 11.9083  22.3044
 11.9887  23.1071
 12.0693  23.205
 12.1498  23.284
 12.2302  22.4049
 12.3108  22.3133
 12.3913  22.5005
 12.4718  22.529
 12.5523  22.6583
 12.6328  22.6027
 12.7133  22.8263
 12.7938  22.8872
 12.8742  23.1861
 12.9548  23.5803
 13.0353  23.965
 13.1158  24.7921
 13.1963  25.4644
 13.2768  26.5745
 13.3573  27.448
 13.4378  28.3679
 13.5183  29.2119
 13.5988  29.39
 13.6793  29.3608
 13.7598  29.0705
 13.8403  28.7872
 13.9208  29.5409
 14.0013  28.8077
 14.0818  27.2589
 14.1623  26.8424
 14.2428  26.3694
 14.3233  26.0913
 14.4038  25.7078
 14.4843  25.4955
 14.5648  25.4594
 14.6453  25.1792
 14.7258  25.0196
 14.8063  24.7999
 14.8868  24.7229
 14.9673  24.614
 15.0478  24.7204
 15.1283  24.7641
 15.2088  25.0982
 15.2892  24.5669
 15.3698  24.5423
 15.4503  24.4418
 15.5308  24.3506
 15.6113  24.2385
 15.6918  24.347
 15.7723  24.4295
 15.8528  24.4124
 15.9332  24.5496
 16.0138  24.5244
 16.0943  24.4978
 16.1748  24.7606
 16.2553  28.9003
 16.3358  25.0297
 16.4163  24.6463
 16.4967  24.4557
 16.5773  24.5035
 16.6578  24.3444
 16.7383  24.2688
 16.8188  24.1592
 16.8992  24.2196
 16.9798  24.1176
 17.0603  23.9685
 17.1408  24.0598
 17.2213  23.9928
 17.3017  23.9768
 17.3823  23.7959
 17.4628  23.7697
 17.5433  23.7426
 17.6238  23.6066
 17.7042  23.7079
 17.7847  23.6364
 17.8653  23.4874
 17.9458  23.5546
 18.0263  23.7253
 18.1068  24.2418
 18.1872  23.5925
 18.2678  23.3837
 18.3483  23.4864
 18.4288  23.4751
 18.5093  23.49
 18.5897  23.3938
 18.6703  23.2675
 18.7508  23.3058
 18.8313  23.2279
 18.9118  23.394
 18.9922  23.2483
 19.0727  23.2501
 19.1533  23.3955
 19.2338  23.2874
 19.3143  23.4474
 19.3948  23.4227
 19.4752  23.4596
 19.5558  23.4803
 19.6363  23.7292
 19.7168  24.7532
 19.7973  24.4404
 19.8777  25.5856
 19.9582  23.8344
 20.0388  23.5988
 20.1193  23.6141
 20.1998  23.5362
 20.2803  23.4429
 20.3607  23.5763
 20.4413  23.5787
 20.5218  23.5737
 20.6023  23.7801
 20.6828  23.9103
 20.7632  24.7513
 20.8438  23.8634
 20.9243  23.8446
 21.0048  23.7717
 21.0853  23.7629
 21.1658  23.8905
 21.2462  23.7613
 21.3268  23.7816
 21.4073  23.8297
 21.4878  23.8748
 21.5683  23.9511
 21.6487  23.9194
 21.7293  23.963
 21.8098  23.9261
 21.8903  23.9722
 21.9708  24.0565
 22.0512  24.1538
 22.1318  24.2521
 22.2123  24.2254
 22.2928  24.2777
 22.3733  24.3965
 22.4538  24.5142
 22.5343  24.5898
 22.6148  24.7862
 22.6953  25.0164
 22.7758  25.0961
 22.8563  25.4018
 22.9367  25.7785
 22.9943  26.0422

File: Data_0112.chi
F:\20151113_APS_34IDE\\Brian\Particle1\OCV\Data_0112.tif
2-Theta Angle (Degrees)
Intensity
       2000
 0.07475  0.0000000E+00
 0.15525  0.0000000E+00
 0.23575  0.0000000E+00
 0.31625  0.0000000E+00
 0.39675  0.0000000E+00
 0.47725  0.0000000E+00
 0.55775  0.0000000E+00
 0.63825  0.0000000E+00
 0.71875  0.0000000E+00
 0.79925  0.0000000E+00
 0.87975  0.0000000E+00
 0.96025  0.0000000E+00
 1.04075  0.0000000E+00
 1.12125  0.0000000E+00
 1.20175  0.0000000E+00
 1.28225  0.0000000E+00
 1.36275  0.0000000E+00
 1.44325  0.0000000E+00
 1.52375  0.0000000E+00
 1.60425  0.0000000E+00
 1.68475  0.0000000E+00
 1.76525  0.0000000E+00
 1.84575  0.0000000E+00
 1.92625  0.0000000E+00
 2.00675  0.0000000E+00
 2.08725  0.0000000E+00
 2.16775  0.0000000E+00
 2.24825  0.0000000E+00
 2.32875  0.0000000E+00
 2.40925  0.0000000E+00
 2.48975  0.0000000E+00
 2.57025  0.0000000E+00
 2.65075  0.0000000E+00
 2.73125  0.0000000E+00
 2.81175  0.0000000E+00
 2.89225  35.3968
 2.97275  34.9661
 3.05325  35.3133
 3.13375  33.6705
 3.21425  34.1499
 3.29475  34.8546
 3.37525  34.6199
 3.45575  33.8429
 3.53625  33.3486
 3.61675  32.8369
 3.69725  32.8015
 3.77775  32.7192
 3.85825  32.7713
 3.93875  32.2597
 4.01925  31.7966
 4.09975  31.9274
 4.18025  31.8435
 4.26075  31.7449
 4.34125  31.7969
 4.42175  31.8945
 4.50225  32.3574
 4.58275  32.0714
 4.66325  32.3195
 4.74375  32.6587
 4.82425  32.0761
 4.90475  32.1405
 4.98525  32.7248
 5.06575  32.8987
 5.14625  33.5962
 5.22675  33.5941
 5.30725  33.5089
 5.38775  34.0224
 5.46825  33.6543
 5.54875  34.4785
 5.62925  34.9704
 5.70975  35.495
 5.79025  35.6537
 5.87075  36.4124
 5.95125  50.1277
 6.03175  46.8469
 6.11225  36.9333
 6.19275  36.4387
 6.27325  37.1001
 6.35375  37.8385
 6.43425  38.1146
 6.51475  38.6884
 6.59525  38.8303
 6.67575  39.7392
 6.75625  39.9469
 6.83675  41.0537
 6.91725  41.4132
 6.99775  41.8561
 7.07825  42.0048
 7.15875  42.412
 7.23925  42.8873
 7.31975  42.9826
 7.40025  43.2983
 7.48075  43.7561
 7.56125  43.8338
 7.64175  43.8388
 7.72225  43.8686
 7.80275  44.0584
 7.88325  43.4803
 7.96375  43.1977
 8.04425  42.8033
 8.12475  42.1555
 8.20525  41.5717
 8.28575  40.4801
 8.36625  39.4076
 8.44675  38.3209
 8.52725  37.3573
 8.60775  35.8965
 8.68825  35.0794
 8.76875  33.6797
 8.84925  32.5992
 8.92975  31.5124
 9.01025  30.4831
 9.09075  29.6023
 9.17125  28.5835
 9.25175  28.1161
 9.33225  27.3099
 9.41275  26.8335
 9.49325  26.4446
 9.57375  25.8926
 9.65425  25.4254
 9.73475  25.178
 9.81525  24.7511
 9.89575  24.3028
 9.97625  24.2087
 10.0567  23.8269
 10.1373  23.7306
 10.2178  23.6882
 10.2982  23.5761
 10.3788  23.2279
 10.4593  23.2439
 10.5397  23.0629
 10.6203  22.9092
 10.7007  22.7882
 10.7813  22.6522
 10.8618  22.5804
 10.9422  22.5605
 11.0228  22.4325
 11.1033  22.4632
 11.1837  22.4325
 11.2643  22.1384
 11.3447  22.3282
 11.4253  22.5817
 11.5058  22.9639
 11.5862  28.4585
 11.6668  23.3207
 11.7473  22.3674
 11.8277  22.2929
 11.9083  22.4627
 11.9887  22.8167
 12.0693  23.6756
 12.1498  23.7274
 12.2302  22.4317
 12.3108  22.3956
 12.3913  22.2945
 12.4718  22.3783
 12.5523  22.4703
 12.6328  22.7068
 12.7133  22.8895
 12.7938  23.0264
 12.8742  23.2662
 12.9548  23.6479
 13.0353  24.0198
 13.1158  24.8299
 13.1963  25.458
 13.2768  26.5148
 13.3573  27.4492
 13.4378  28.1151
 13.5183  29.1143
 13.5988  29.4761
 13.6793  29.5408
 13.7598  29.38
 13.8403  29.3547
 13.9208  36.1833
 14.0013  35.0795
 14.0818  27.6978
 14.1623  27.1833
 14.2428  26.4764
 14.3233  26.2206
 14.4038  25.76
 14.4843  25.6008
 14.5648  25.38
 14.6453  25.1459
 14.7258  25.0751
 14.8063  24.7842
 14.8868  24.7229
 14.9673  24.7359
 15.0478  24.6552
 15.1283  24.7016
 15.2088  26.3286
 15.2892  24.6572
 15.3698  24.2837
 15.4503  24.3261
 15.5308  24.2347
 15.6113  24.3718
 15.6918  24.3125
 15.7723  24.3317
 15.8528  24.4502
 15.9332  24.4151
 16.0138  24.4888
 16.0943  24.5662
 16.1748  24.7099
 16.2553  27.7951
 16.3358  24.975
 16.4163  24.5308
 16.4967  24.5091
 16.5773  24.304
 16.6578  24.3447
 16.7383  24.3066
 16.8188  24.2606
 16.8992  24.1862
 16.9798  24.1825
 17.0603  24.0393
 17.1408  24.2514
 17.2213  24.1168
 17.3017  23.969
 17.3823  23.984
 17.4628  23.8099
 17.5433  23.7448
 17.6238  23.8709
 17.7042  23.6813
 17.7847  23.7209
 17.8653  23.6695
 17.9458  23.7369
 18.0263  23.9356
 18.1068  24.6631
 18.1872  23.7753
 18.2678  23.6211
 18.3483  23.6623
 18.4288  23.5129
 18.5093  23.3461
 18.5897  23.5036
 18.6703  23.2803
 18.7508  23.3495
 18.8313  23.3583
 18.9118  23.2658
 18.9922  23.2877
 19.0727  23.4911
 19.1533  23.473
 19.2338  23.4751
 19.3143  23.6112
 19.3948  23.5202
 19.4752  23.644
 19.5558  23.6664
 19.6363  24.2777
 19.7168  28.8883
 19.7973  25.8866
 19.8777  32.3897
 19.9582  24.2647
 20.0388  23.7709
 20.1193  23.8125
 20.1998  23.6826
 20.2803  23.494
 20.3607  23.6053
 20.4413  23.6016
 20.5218  23.529
 20.6023  23.7897
 20.6828  24.1511
 20.7632  26.5821
 20.8438  24.3964
 20.9243  23.7574
 21.0048  23.849
 21.0853  23.7793
 21.1658  23.7665
 21.2462  23.7728
 21.3268  23.8303
 21.4073  23.848
 21.4878  23.9133
 21.5683  23.8412
 21.6487  23.9799
 21.7293  23.9658
 21.8098  24.0486
 21.8903  24.0361
 21.9708  24.0878
 22.0512  24.1324
 22.1318  24.2974
 22.2123  24.2751
 22.2928  24.2568
 22.3733  24.493
 22.4538  24.5657
 22.5343  24.585
 22.6148  24.6978
 22.6953  24.8895
 22.7758  25.1007
 22.8563  25.7307
 22.9367  25.6216
 22.9943  26.0431

File: Data_0113.chi
F:\20151113_APS_34IDE\\Brian\Particle1\OCV\Data_0113.tif
2-Theta Angle (Degrees)
Intensity
       2000
 0.07475  0.0000000E+00
 0.15525  0.0000000E+00
 0.23575  0.0000000E+00
 0.31625  0.0000000E+00
 0.39675  0.0000000E+00
 0.47725  0.0000000E+00
 0.55775  0.0000000E+00
 0.63825  0.0000000E+00
 0.71875  0.0000000E+00
 0.79925  0.0000000E+00
 0.87975  0.0000000E+00
 0.96025  0.0000000E+00
 1.04075  0.0000000E+00
 1.12125  0.0000000E+00
 1.20175  0.0000000E+00
 1.28225  0.0000000E+00
 1.36275  0.0000000E+00
 1.44325  0.0000000E+00
 1.52375  0.0000000E+00
 1.60425  0.0000000E+00
 1.68475  0.0000000E+00
 1.76525  0.0000000E+00
 1.84575  0.0000000E+00
 1.92625  0.0000000E+00
 2.00675  0.0000000E+00
 2.08725  0.0000000E+00
 2.16775  0.0000000E+00
 2.24825  0.0000000E+00
 2.32875  0.0000000E+00
 2.40925  0.0000000E+00
 2.48975  0.0000000E+00
 2.57025  0.0000000E+00
 2.65075  0.0000000E+00
 2.73125  0.0000000E+00
 2.81175  0.0000000E+00
 2.89225  35.6141
 2.97275  34.8825
 3.05325  35.6225
 3.13375  36.4398
 3.21425  35.2097
 3.29475  33.8035
 3.37525  34.3079
 3.45575  33.7654
 3.53625  33.3951
 3.61675  32.9541
 3.69725  32.8174
 3.77775  32.743
 3.85825  32.2411
 3.93875  32.3806
 4.01925  31.967
 4.09975  32.4621
 4.18025  31.9976
 4.26075  31.7273
 4.34125  32.0128
 4.42175  32.1332
 4.50225  32.4088
 4.58275  32.1559
 4.66325  32.1959
 4.74375  33.2155
 4.82425  32.0301
 4.90475  32.51
 4.98525  32.7717
 5.06575  32.8556
 5.14625  33.3606
 5.22675  33.906
 5.30725  34.1258
 5.38775  34.4342
 5.46825  34.4038
 5.54875  34.7013
 5.62925  34.7565
 5.70975  35.139
 5.79025  35.6373
 5.87075  36.3084
 5.95125  45.065
 6.03175  43.8157
 6.11225  36.6262
 6.19275  36.8186
 6.27325  37.2551
 6.35375  37.3834
 6.43425  38.1497
 6.51475  38.7939
 6.59525  39.2233
 6.67575  40.0077
 6.75625  40.6649
 6.83675  41.2491
 6.91725  41.6946
 6.99775  41.809
 7.07825  42.6168
 7.15875  42.67
 7.23925  42.9153
 7.31975  43.3849
 7.40025  43.4072
 7.48075  43.6725
 7.56125  44.0491
 7.64175  43.9526
 7.72225  43.8012
 7.80275  43.6795
 7.88325  43.5345
 7.96375  43.3954
 8.04425  42.7597
 8.12475  42.3931
 8.20525  41.5953
 8.28575  40.5843
 8.36625  39.504
 8.44675  38.0149
 8.52725  37.0637
 8.60775  35.9488
 8.68825  35.013
 8.76875  33.6586
 8.84925  32.6356
 8.92975  31.2908
 9.01025  30.133
 9.09075  29.5147
 9.17125  28.7375
 9.25175  27.9328
 9.33225  27.3485
 9.41275  26.7467
 9.49325  26.3791
 9.57375  25.7517
 9.65425  25.312
 9.73475  24.8426
 9.81525  24.6334
 9.89575  24.3512
 9.97625  24.07
 10.0567  23.8115
 10.1373  23.666
 10.2178  23.68
 10.2982  23.4263
 10.3788  23.3338
 10.4593  23.0366
 10.5397  23.0344
 10.6203  22.8785
 10.7007  22.7869
 10.7813  22.5681
 10.8618  22.6294
 10.9422  22.4701
 11.0228  22.3261
 11.1033  22.2301
 11.1837  22.2938
 11.2643  22.3289
 11.3447  22.428
 11.4253  22.5139
 11.5058  22.9835
 11.5862  31.0448
 11.6668  25.0808
 11.7473  22.5927
 11.8277  22.3501
 11.9083  22.2862
 11.9887  22.8768
 12.0693  23.3132
 12.1498  22.9604
 12.2302  22.3382
 12.3108  22.4242
 12.3913  22.2778
 12.4718  22.3724
 12.5523  22.5839
 12.6328  22.6643
 12.7133  22.7426
 12.7938  22.8362
 12.8742  23.2754
 12.9548  23.597
 13.0353  23.9688
 13.1158  24.5981
 13.1963  25.5017
 13.2768  26.3798
 13.3573  27.4572
 13.4378  28.3567
 13.5183  29.0541
 13.5988  29.5732
 13.6793  29.2987
 13.7598  29.1853
 13.8403  29.0771
 13.9208  34.8982
 14.0013  33.2358
 14.0818  27.7327
 14.1623  26.9399
 14.2428  26.3031
 14.3233  25.7676
 14.4038  25.7489
 14.4843  25.4504
 14.5648  25.3311
 14.6453  25.1122
 14.7258  24.9156
 14.8063  24.8136
 14.8868  24.6788
 14.9673  24.5637
 15.0478  24.5639
 15.1283  24.8945
 15.2088  27.1385
 15.2892  24.6154
 15.3698  24.4906
 15.4503  24.2908
 15.5308  24.4137
 15.6113  24.3679
 15.6918  24.3946
 15.7723  24.2838
 15.8528  24.3769
 15.9332  24.5579
 16.0138  24.4935
 16.0943  24.5849
 16.1748  24.8003
 16.2553  27.1742
 16.3358  24.7642
 16.4163  24.5461
 16.4967  24.4093
 16.5773  24.2994
 16.6578  24.3126
 16.7383  24.4099
 16.8188  24.1586
 16.8992  24.1827
 16.9798  24.12
 17.0603  24.0676
 17.1408  24.0101
 17.2213  23.9516
 17.3017  23.905
 17.3823  23.7291
 17.4628  23.844
 17.5433  23.5932
 17.6238  23.7463
 17.7042  23.6807
 17.7847  23.6129
 17.8653  23.5274
 17.9458  23.6052
 18.0263  24.1263
 18.1068  25.5855
 18.1872  24.0591
 18.2678  23.4546
 18.3483  23.3921
 18.4288  23.5035
 18.5093  23.309
 18.5897  23.3959
 18.6703  23.3551
 18.7508  23.305
 18.8313  23.3531
 18.9118  23.329
 18.9922  23.4655
 19.0727  23.2832
 19.1533  23.3901
 19.2338  23.2747
 19.3143  23.3867
 19.3948  23.4562
 19.4752  23.4581
 19.5558  23.6176
 19.6363  23.935
 19.7168  26.4853
 19.7973  25.253
 19.8777  26.9173
 19.9582  24.1177
 20.0388  23.6082
 20.1193  23.5281
 20.1998  23.4435
 20.2803  23.433
 20.3607  23.4937
 20.4413  23.5237
 20.5218  23.4611
 20.6023  23.7629
 20.6828  23.9757
 20.7632  25.7194
 20.8438  23.9966
 20.9243  23.7404
 21.0048  23.7403
 21.0853  23.9007
 21.1658  23.6914
 21.2462  23.726
 21.3268  23.7396
 21.4073  23.782
 21.4878  23.8391
 21.5683  23.8067
 21.6487  24.002
 21.7293  23.8449
 21.8098  23.9786
 21.8903  24.0514
 21.9708  23.8973
 22.0512  24.0586
 22.1318  24.0987
 22.2123  24.1719
 22.2928  24.2789
 22.3733  24.2768
 22.4538  24.4836
 22.5343  24.6176
 22.6148  24.7036
 22.6953  24.8118
 22.7758  25.1305
 22.8563  25.3231
 22.9367  25.6928
 22.9943  26.049

File: Data_0114.chi
F:\20151113_APS_34IDE\\Brian\Particle1\OCV\Data_0114.tif
2-Theta Angle (Degrees)
Intensity
       2000
 0.07475  0.0000000E+00
 0.15525  0.0000000E+00
 0.23575  0.0000000E+00
 0.31625  0.0000000E+00
 0.39675  0.0000000E+00
 0.47725  0.0000000E+00
 0.55775  0.0000000E+00
 0.63825  0.0000000E+00
 0.71875  0.0000000E+00
 0.79925  0.0000000E+00
 0.87975  0.0000000E+00
 0.96025  0.0000000E+00
 1.04075  0.0000000E+00
 1.12125  0.0000000E+00
 1.20175  0.0000000E+00
 1.28225  0.0000000E+00
 1.36275  0.0000000E+00
 1.44325  0.0000000E+00
 1.52375  0.0000000E+00
 1.60425  0.0000000E+00
 1.68475  0.0000000E+00
 1.76525  0.0000000E+00
 1.84575  0.0000000E+00
 1.92625  0.0000000E+00
 2.00675  0.0000000E+00
 2.08725  0.0000000E+00
 2.16775  0.0000000E+00
 2.24825  0.0000000E+00
 2.32875  0.0000000E+00
 2.40925  0.0000000E+00
 2.48975  0.0000000E+00
 2.57025  0.0000000E+00
 2.65075  0.0000000E+00
 2.73125  0.0000000E+00
 2.81175  0.0000000E+00
 2.89225  35.372
 2.97275  34.2038
 3.05325  35.0267
 3.13375  34.3352
 3.21425  35.7586
 3.29475  34.5848
 3.37525  34.0278
 3.45575  33.8104
 3.53625  33.1485
 3.61675  32.6991
 3.69725  32.6402
 3.77775  32.5922
 3.85825  31.9689
 3.93875  32.4363
 4.01925  32.4614
 4.09975  32.5442
 4.18025  32.0514
 4.26075  31.9004
 4.34125  32.0107
 4.42175  32.263
 4.50225  32.4675
 4.58275  32.2107
 4.66325  32.8313
 4.74375  32.0648
 4.82425  32.359
 4.90475  32.6105
 4.98525  32.4414
 5.06575  33.2526
 5.14625  33.2104
 5.22675  33.2727
 5.30725  33.3409
 5.38775  33.8041
 5.46825  34.439
 5.54875  34.4253
 5.62925  34.7756
 5.70975  35.0687
 5.79025  35.4061
 5.87075  36.0059
 5.95125  45.2655
 6.03175  44.4353
 6.11225  36.6107
 6.19275  36.4656
 6.27325  37.0088
 6.35375  37.5284
 6.43425  38.1686
 6.51475  38.5677
 6.59525  38.6889
 6.67575  39.7389
 6.75625  40.2521
 6.83675  41.0281
 6.91725  41.4769
 6.99775  41.6849
 7.07825  41.9195
 7.15875  42.5544
 7.23925  43.0424
 7.31975  43.2135
 7.40025  43.2089
 7.48075  43.5015
 7.56125  43.5898
 7.64175  43.8022
 7.72225  43.7836
 7.80275  43.3055
 7.88325  43.2043
 7.96375  43.0347
 8.04425  42.6139
 8.12475  41.7077
 8.20525  40.9198
 8.28575  40.2511
 8.36625  39.3091
 8.44675  38.3743
 8.52725  36.9061
 8.60775  35.6728
 8.68825  34.6067
 8.76875  33.3799
 8.84925  32.5666
 8.92975  31.3358
 9.01025  30.2963
 9.09075  29.5124
 9.17125  28.848
 9.25175  27.8087
 9.33225  27.0712
 9.41275  26.7604
 9.49325  26.2591
 9.57375  25.8299
 9.65425  25.2151
 9.73475  24.8022
 9.81525  24.5246
 9.89575  24.2319
 9.97625  24.1013
 10.0567  23.8397
 10.1373  23.6898
 10.2178  23.6799
 10.2982  23.3202
 10.3788  23.1885
 10.4593  23.0144
 10.5397  22.8544
 10.6203  22.7535
 10.7007  22.7117
 10.7813  22.5997
 10.8618  22.473
 10.9422  22.4174
 11.0228  22.4923
 11.1033  22.3877
 11.1837  22.2204
 11.2643  22.2388
 11.3447  22.3865
 11.4253  22.5468
 11.5058  22.8373
 11.5862  30.7036
 11.6668  23.8836
 11.7473  22.3058
 11.8277  22.3512
 11.9083  22.3938
 11.9887  23.0032
 12.0693  23.6818
 12.1498  24.6111
 12.2302  22.3903
 12.3108  22.4525
 12.3913  22.3793
 12.4718  22.5036
 12.5523  22.4733
 12.6328  22.7193
 12.7133  22.724
 12.7938  22.938
 12.8742  23.0861
 12.9548  23.4004
 13.0353  23.9728
 13.1158  24.5075
 13.1963  25.4493
 13.2768  26.2686
 13.3573  27.2406
 13.4378  28.3304
 13.5183  29.0912
 13.5988  29.2224
 13.6793  29.4006
 13.7598  28.9969
 13.8403  28.8655
 13.9208  31.3843
 14.0013  31.7901
 14.0818  27.3685
 14.1623  26.882
 14.2428  26.1665
 14.3233  25.9364
 14.4038  25.6662
 14.4843  25.5261
 14.5648  25.3564
 14.6453  25.0979
 14.7258  24.9602
 14.8063  24.8387
 14.8868  24.5549
 14.9673  24.6491
 15.0478  24.541
 15.1283  24.9258
 15.2088  26.4931
 15.2892  24.5808
 15.3698  24.2918
 15.4503  24.1999
 15.5308  24.3667
 15.6113  24.3815
 15.6918  24.2777
 15.7723  24.1771
 15.8528  24.227
 15.9332  24.3266
 16.0138  24.357
 16.0943  24.5761
 16.1748  24.678
 16.2553  26.6284
 16.3358  24.9033
 16.4163  24.5212
 16.4967  24.3945
 16.5773  24.2908
 16.6578  24.389
 16.7383  24.244
 16.8188  24.1999
 16.8992  24.0986
 16.9798  24.1208
 17.0603  23.8391
 17.1408  24.0496
 17.2213  23.9638
 17.3017  23.844
 17.3823  23.788
 17.4628  23.8181
 17.5433  23.5352
 17.6238  23.6383
 17.7042  23.5305
 17.7847  23.5417
 17.8653  23.692
 17.9458  23.645
 18.0263  25.822
 18.1068  26.2382
 18.1872  23.9415
 18.2678  23.5016
 18.3483  23.4544
 18.4288  23.4352
 18.5093  23.3636
 18.5897  23.2782
 18.6703  23.2841
 18.7508  23.2654
 18.8313  23.3482
 18.9118  23.2391
 18.9922  23.2859
 19.0727  23.3498
 19.1533  23.3372
 19.2338  23.2865
 19.3143  23.3848
 19.3948  23.4299
 19.4752  23.3925
 19.5558  23.3832
 19.6363  23.896
 19.7168  25.8784
 19.7973  25.1941
 19.8777  27.1642
 19.9582  23.9359
 20.0388  23.5704
 20.1193  23.5439
 20.1998  23.447
 20.2803  23.4612
 20.3607  23.452
 20.4413  23.4411
 20.5218  23.5518
 20.6023  23.6941
 20.6828  24.0843
 20.7632  26.4245
 20.8438  24.0308
 20.9243  23.8679
 21.0048  23.6266
 21.0853  23.6547
 21.1658  23.6077
 21.2462  23.6531
 21.3268  23.6601
 21.4073  23.7188
 21.4878  23.8019
 21.5683  23.7016
 21.6487  23.8054
 21.7293  23.9476
 21.8098  23.8771
 21.8903  23.8881
 21.9708  24.0194
 22.0512  24.1636
 22.1318  24.1018
 22.2123  24.0101
 22.2928  24.0977
 22.3733  24.2114
 22.4538  24.397
 22.5343  24.521
 22.6148  24.557
 22.6953  24.8201
 22.7758  25.0696
 22.8563  25.3684
 22.9367  25.798
 22.9943  26.1112