Folder: scimap-tests/test-data-xrd/xrd-map-34-ID-E (part 18)

File: Data_0074.chi
F:\20151113_APS_34IDE\\Brian\Particle1\OCV\Data_0074.tif
2-Theta Angle (Degrees)
Intensity
       2000
 0.07475  0.0000000E+00
 0.15525  0.0000000E+00
 0.23575  0.0000000E+00
 0.31625  0.0000000E+00
 0.39675  0.0000000E+00
 0.47725  0.0000000E+00
 0.55775  0.0000000E+00
 0.63825  0.0000000E+00
 0.71875  0.0000000E+00
 0.79925  0.0000000E+00
 0.87975  0.0000000E+00
 0.96025  0.0000000E+00
 1.04075  0.0000000E+00
 1.12125  0.0000000E+00
 1.20175  0.0000000E+00
 1.28225  0.0000000E+00
 1.36275  0.0000000E+00
 1.44325  0.0000000E+00
 1.52375  0.0000000E+00
 1.60425  0.0000000E+00
 1.68475  0.0000000E+00
 1.76525  0.0000000E+00
 1.84575  0.0000000E+00
 1.92625  0.0000000E+00
 2.00675  0.0000000E+00
 2.08725  0.0000000E+00
 2.16775  0.0000000E+00
 2.24825  0.0000000E+00
 2.32875  0.0000000E+00
 2.40925  0.0000000E+00
 2.48975  0.0000000E+00
 2.57025  0.0000000E+00
 2.65075  0.0000000E+00
 2.73125  0.0000000E+00
 2.81175  0.0000000E+00
 2.89225  36.6462
 2.97275  36.0291
 3.05325  34.4662
 3.13375  35.0849
 3.21425  34.7291
 3.29475  33.1938
 3.37525  34.3902
 3.45575  34.3669
 3.53625  33.516
 3.61675  33.1742
 3.69725  32.9964
 3.77775  33.3349
 3.85825  32.7825
 3.93875  32.1903
 4.01925  33.0541
 4.09975  32.8298
 4.18025  32.1541
 4.26075  32.227
 4.34125  32.208
 4.42175  32.2549
 4.50225  32.474
 4.58275  32.8196
 4.66325  33.2185
 4.74375  32.5448
 4.82425  32.425
 4.90475  32.7177
 4.98525  32.7291
 5.06575  33.1381
 5.14625  33.5822
 5.22675  33.6203
 5.30725  33.9503
 5.38775  34.2009
 5.46825  34.5468
 5.54875  34.5518
 5.62925  34.8994
 5.70975  35.1344
 5.79025  35.4936
 5.87075  35.8473
 5.95125  40.4715
 6.03175  40.3325
 6.11225  36.4408
 6.19275  37.0304
 6.27325  37.3311
 6.35375  38.2796
 6.43425  38.454
 6.51475  39.132
 6.59525  39.4553
 6.67575  40.0046
 6.75625  40.3967
 6.83675  41.5939
 6.91725  41.4884
 6.99775  42.3441
 7.07825  42.4917
 7.15875  43.022
 7.23925  42.9468
 7.31975  43.7474
 7.40025  43.6361
 7.48075  43.8647
 7.56125  44.4526
 7.64175  44.3053
 7.72225  44.3151
 7.80275  44.4509
 7.88325  44.0058
 7.96375  43.4208
 8.04425  43.4115
 8.12475  42.5833
 8.20525  41.9525
 8.28575  40.7463
 8.36625  40.1214
 8.44675  38.7697
 8.52725  37.6058
 8.60775  36.1752
 8.68825  35.2136
 8.76875  34.1491
 8.84925  32.9364
 8.92975  31.5401
 9.01025  30.7402
 9.09075  29.9108
 9.17125  29.0247
 9.25175  28.2314
 9.33225  27.5422
 9.41275  26.9181
 9.49325  26.5597
 9.57375  26.0633
 9.65425  25.5538
 9.73475  25.234
 9.81525  24.7721
 9.89575  24.6355
 9.97625  24.4834
 10.0567  24.1947
 10.1373  24.0556
 10.2178  23.8038
 10.2982  23.8843
 10.3788  23.4948
 10.4593  23.1861
 10.5397  23.1792
 10.6203  23.0922
 10.7007  22.8344
 10.7813  22.7932
 10.8618  22.7187
 10.9422  22.8354
 11.0228  22.62
 11.1033  22.6181
 11.1837  22.7677
 11.2643  22.5425
 11.3447  22.6544
 11.4253  22.9345
 11.5058  23.3219
 11.5862  30.6671
 11.6668  24.1774
 11.7473  22.6825
 11.8277  22.5914
 11.9083  22.4677
 11.9887  23.1393
 12.0693  23.5556
 12.1498  23.4057
 12.2302  22.5524
 12.3108  22.766
 12.3913  22.6229
 12.4718  22.6681
 12.5523  22.632
 12.6328  22.8969
 12.7133  23.0924
 12.7938  23.0714
 12.8742  23.367
 12.9548  23.6505
 13.0353  24.1055
 13.1158  24.7948
 13.1963  25.5874
 13.2768  26.4609
 13.3573  27.5144
 13.4378  28.4157
 13.5183  29.335
 13.5988  29.6688
 13.6793  29.7154
 13.7598  29.7576
 13.8403  30.3032
 13.9208  36.1238
 14.0013  38.0242
 14.0818  28.1095
 14.1623  27.144
 14.2428  26.5498
 14.3233  26.2937
 14.4038  26.0093
 14.4843  25.7666
 14.5648  25.6315
 14.6453  25.3539
 14.7258  25.1312
 14.8063  24.9905
 14.8868  24.8717
 14.9673  24.8934
 15.0478  25.0198
 15.1283  25.5248
 15.2088  30.6148
 15.2892  25.0698
 15.3698  24.7883
 15.4503  24.5919
 15.5308  24.5517
 15.6113  24.555
 15.6918  24.5438
 15.7723  24.5446
 15.8528  24.5137
 15.9332  24.6869
 16.0138  24.5817
 16.0943  24.7036
 16.1748  24.766
 16.2553  25.4242
 16.3358  24.939
 16.4163  24.7524
 16.4967  24.693
 16.5773  24.6957
 16.6578  24.5579
 16.7383  24.6078
 16.8188  24.3739
 16.8992  24.3875
 16.9798  24.3633
 17.0603  24.2307
 17.1408  24.2293
 17.2213  24.183
 17.3017  24.2423
 17.3823  23.9847
 17.4628  24.035
 17.5433  23.9862
 17.6238  23.8936
 17.7042  23.9498
 17.7847  24.0103
 17.8653  23.9752
 17.9458  24.6439
 18.0263  35.1202
 18.1068  26.0884
 18.1872  24.3676
 18.2678  23.8575
 18.3483  23.865
 18.4288  23.691
 18.5093  23.6555
 18.5897  23.6565
 18.6703  23.613
 18.7508  23.5974
 18.8313  23.5102
 18.9118  23.5665
 18.9922  23.4268
 19.0727  23.7065
 19.1533  23.5047
 19.2338  23.6212
 19.3143  23.6382
 19.3948  23.8039
 19.4752  24.0058
 19.5558  24.1884
 19.6363  26.3309
 19.7168  32.9269
 19.7973  26.5704
 19.8777  30.4044
 19.9582  24.6686
 20.0388  23.9577
 20.1193  23.9376
 20.1998  23.804
 20.2803  23.8701
 20.3607  23.5991
 20.4413  23.837
 20.5218  23.7984
 20.6023  24.0057
 20.6828  24.7821
 20.7632  27.8676
 20.8438  24.4067
 20.9243  24.1877
 21.0048  23.9824
 21.0853  23.8838
 21.1658  23.8936
 21.2462  23.9453
 21.3268  23.9655
 21.4073  24.0623
 21.4878  24.0152
 21.5683  23.8834
 21.6487  24.2724
 21.7293  24.1401
 21.8098  24.2329
 21.8903  24.1941
 21.9708  24.2531
 22.0512  24.3302
 22.1318  24.4277
 22.2123  24.357
 22.2928  24.5075
 22.3733  24.5497
 22.4538  24.6734
 22.5343  24.7934
 22.6148  24.8833
 22.6953  25.122
 22.7758  25.3115
 22.8563  25.501
 22.9367  26.0182
 22.9943  26.3049

File: Data_0075.chi
F:\20151113_APS_34IDE\\Brian\Particle1\OCV\Data_0075.tif
2-Theta Angle (Degrees)
Intensity
       2000
 0.07475  0.0000000E+00
 0.15525  0.0000000E+00
 0.23575  0.0000000E+00
 0.31625  0.0000000E+00
 0.39675  0.0000000E+00
 0.47725  0.0000000E+00
 0.55775  0.0000000E+00
 0.63825  0.0000000E+00
 0.71875  0.0000000E+00
 0.79925  0.0000000E+00
 0.87975  0.0000000E+00
 0.96025  0.0000000E+00
 1.04075  0.0000000E+00
 1.12125  0.0000000E+00
 1.20175  0.0000000E+00
 1.28225  0.0000000E+00
 1.36275  0.0000000E+00
 1.44325  0.0000000E+00
 1.52375  0.0000000E+00
 1.60425  0.0000000E+00
 1.68475  0.0000000E+00
 1.76525  0.0000000E+00
 1.84575  0.0000000E+00
 1.92625  0.0000000E+00
 2.00675  0.0000000E+00
 2.08725  0.0000000E+00
 2.16775  0.0000000E+00
 2.24825  0.0000000E+00
 2.32875  0.0000000E+00
 2.40925  0.0000000E+00
 2.48975  0.0000000E+00
 2.57025  0.0000000E+00
 2.65075  0.0000000E+00
 2.73125  0.0000000E+00
 2.81175  0.0000000E+00
 2.89225  36.3151
 2.97275  36.4083
 3.05325  36.9496
 3.13375  35.3392
 3.21425  35.5956
 3.29475  34.4417
 3.37525  34.721
 3.45575  35.2011
 3.53625  34.4718
 3.61675  33.952
 3.69725  33.1809
 3.77775  33.2165
 3.85825  35.0332
 3.93875  32.4499
 4.01925  33.1138
 4.09975  32.4583
 4.18025  32.7536
 4.26075  32.4999
 4.34125  32.4335
 4.42175  32.2512
 4.50225  32.9607
 4.58275  32.5234
 4.66325  33.2697
 4.74375  32.8937
 4.82425  32.6214
 4.90475  32.657
 4.98525  32.9295
 5.06575  33.4009
 5.14625  33.4211
 5.22675  33.9625
 5.30725  34.2709
 5.38775  34.6645
 5.46825  34.4569
 5.54875  34.9466
 5.62925  34.9829
 5.70975  35.3419
 5.79025  36.0975
 5.87075  36.9635
 5.95125  47.5884
 6.03175  44.4515
 6.11225  37.1588
 6.19275  37.2741
 6.27325  37.5247
 6.35375  38.1124
 6.43425  38.3348
 6.51475  39.2301
 6.59525  39.7132
 6.67575  40.3729
 6.75625  40.8664
 6.83675  41.4561
 6.91725  41.8819
 6.99775  42.3246
 7.07825  42.4298
 7.15875  43.2999
 7.23925  43.7385
 7.31975  43.7583
 7.40025  43.8835
 7.48075  44.2892
 7.56125  44.3593
 7.64175  44.3469
 7.72225  44.6416
 7.80275  44.1899
 7.88325  43.9974
 7.96375  43.5204
 8.04425  43.289
 8.12475  42.6511
 8.20525  42.0797
 8.28575  41.0592
 8.36625  40.0781
 8.44675  38.8219
 8.52725  37.6235
 8.60775  36.2664
 8.68825  35.429
 8.76875  34.8977
 8.84925  32.707
 8.92975  31.8914
 9.01025  30.5813
 9.09075  29.5672
 9.17125  29.093
 9.25175  27.9831
 9.33225  27.2617
 9.41275  26.8305
 9.49325  26.4531
 9.57375  25.9032
 9.65425  25.5192
 9.73475  25.1708
 9.81525  24.7894
 9.89575  24.6967
 9.97625  24.4608
 10.0567  24.0811
 10.1373  23.7452
 10.2178  23.6864
 10.2982  23.4209
 10.3788  23.1485
 10.4593  23.451
 10.5397  23.0455
 10.6203  22.904
 10.7007  22.9376
 10.7813  22.8885
 10.8618  22.6745
 10.9422  22.71
 11.0228  22.5976
 11.1033  22.4826
 11.1837  22.468
 11.2643  22.4733
 11.3447  22.5117
 11.4253  22.8128
 11.5058  23.147
 11.5862  30.0111
 11.6668  23.9806
 11.7473  22.6615
 11.8277  22.5268
 11.9083  22.4928
 11.9887  23.4696
 12.0693  23.4946
 12.1498  23.4648
 12.2302  22.6007
 12.3108  22.5833
 12.3913  22.6023
 12.4718  22.7109
 12.5523  22.609
 12.6328  22.7925
 12.7133  22.8184
 12.7938  22.9529
 12.8742  23.1955
 12.9548  23.791
 13.0353  24.2734
 13.1158  24.6263
 13.1963  25.5351
 13.2768  26.6912
 13.3573  27.6642
 13.4378  28.6192
 13.5183  29.5324
 13.5988  29.8353
 13.6793  29.6497
 13.7598  29.2705
 13.8403  29.1649
 13.9208  31.6617
 14.0013  30.6414
 14.0818  27.6335
 14.1623  27.1835
 14.2428  26.5439
 14.3233  26.0304
 14.4038  25.783
 14.4843  25.6169
 14.5648  25.671
 14.6453  25.4598
 14.7258  25.1466
 14.8063  24.9482
 14.8868  24.9061
 14.9673  24.7184
 15.0478  24.8294
 15.1283  25.0376
 15.2088  28.0105
 15.2892  24.8287
 15.3698  24.5875
 15.4503  24.6396
 15.5308  24.3808
 15.6113  24.3863
 15.6918  24.5098
 15.7723  24.5615
 15.8528  24.6215
 15.9332  24.5146
 16.0138  24.6395
 16.0943  24.6264
 16.1748  24.7525
 16.2553  25.2451
 16.3358  24.9536
 16.4163  24.5952
 16.4967  24.5782
 16.5773  24.4962
 16.6578  24.6093
 16.7383  24.5067
 16.8188  24.3308
 16.8992  24.4051
 16.9798  24.296
 17.0603  24.1797
 17.1408  24.2075
 17.2213  24.0841
 17.3017  24.0842
 17.3823  23.9814
 17.4628  24.0067
 17.5433  23.808
 17.6238  23.8705
 17.7042  23.7951
 17.7847  23.7304
 17.8653  23.7603
 17.9458  23.872
 18.0263  24.5252
 18.1068  25.6628
 18.1872  24.3738
 18.2678  23.6564
 18.3483  23.634
 18.4288  23.6188
 18.5093  23.4474
 18.5897  23.5718
 18.6703  23.4042
 18.7508  23.3163
 18.8313  23.5184
 18.9118  23.4775
 18.9922  23.5134
 19.0727  23.5277
 19.1533  23.3996
 19.2338  23.4648
 19.3143  23.4672
 19.3948  23.4329
 19.4752  23.5987
 19.5558  23.6627
 19.6363  24.1834
 19.7168  26.4708
 19.7973  25.7764
 19.8777  27.8499
 19.9582  24.1222
 20.0388  23.8403
 20.1193  23.7622
 20.1998  23.6593
 20.2803  23.7698
 20.3607  23.6452
 20.4413  23.7003
 20.5218  23.6376
 20.6023  23.8562
 20.6828  24.396
 20.7632  27.2276
 20.8438  24.5449
 20.9243  23.9414
 21.0048  23.9297
 21.0853  23.9466
 21.1658  23.8698
 21.2462  23.8322
 21.3268  23.8952
 21.4073  23.885
 21.4878  23.9144
 21.5683  24.0159
 21.6487  24.1259
 21.7293  23.9828
 21.8098  23.9939
 21.8903  24.1576
 21.9708  24.1589
 22.0512  24.2385
 22.1318  24.3631
 22.2123  24.1758
 22.2928  24.4175
 22.3733  24.5404
 22.4538  24.675
 22.5343  24.718
 22.6148  24.826
 22.6953  25.0071
 22.7758  25.159
 22.8563  25.5575
 22.9367  25.9116
 22.9943  26.3637

File: Data_0076.chi
F:\20151113_APS_34IDE\\Brian\Particle1\OCV\Data_0076.tif
2-Theta Angle (Degrees)
Intensity
       2000
 0.07475  0.0000000E+00
 0.15525  0.0000000E+00
 0.23575  0.0000000E+00
 0.31625  0.0000000E+00
 0.39675  0.0000000E+00
 0.47725  0.0000000E+00
 0.55775  0.0000000E+00
 0.63825  0.0000000E+00
 0.71875  0.0000000E+00
 0.79925  0.0000000E+00
 0.87975  0.0000000E+00
 0.96025  0.0000000E+00
 1.04075  0.0000000E+00
 1.12125  0.0000000E+00
 1.20175  0.0000000E+00
 1.28225  0.0000000E+00
 1.36275  0.0000000E+00
 1.44325  0.0000000E+00
 1.52375  0.0000000E+00
 1.60425  0.0000000E+00
 1.68475  0.0000000E+00
 1.76525  0.0000000E+00
 1.84575  0.0000000E+00
 1.92625  0.0000000E+00
 2.00675  0.0000000E+00
 2.08725  0.0000000E+00
 2.16775  0.0000000E+00
 2.24825  0.0000000E+00
 2.32875  0.0000000E+00
 2.40925  0.0000000E+00
 2.48975  0.0000000E+00
 2.57025  0.0000000E+00
 2.65075  0.0000000E+00
 2.73125  0.0000000E+00
 2.81175  0.0000000E+00
 2.89225  34.2039
 2.97275  34.7912
 3.05325  35.2215
 3.13375  35.2598
 3.21425  36.5954
 3.29475  34.6409
 3.37525  35.0291
 3.45575  34.8136
 3.53625  33.9389
 3.61675  33.368
 3.69725  32.9484
 3.77775  32.6489
 3.85825  32.5446
 3.93875  32.9655
 4.01925  33.1715
 4.09975  32.7555
 4.18025  32.3301
 4.26075  32.4325
 4.34125  32.5023
 4.42175  32.5385
 4.50225  32.6118
 4.58275  32.7488
 4.66325  32.7893
 4.74375  32.6203
 4.82425  32.6676
 4.90475  32.9641
 4.98525  33.4505
 5.06575  33.4235
 5.14625  33.707
 5.22675  33.9035
 5.30725  34.2238
 5.38775  34.5564
 5.46825  34.6647
 5.54875  34.8212
 5.62925  35.361
 5.70975  35.5988
 5.79025  35.8189
 5.87075  35.9311
 5.95125  37.7436
 6.03175  37.502
 6.11225  36.9345
 6.19275  37.0128
 6.27325  37.307
 6.35375  38.0566
 6.43425  38.5801
 6.51475  39.0811
 6.59525  39.6867
 6.67575  40.0836
 6.75625  40.8972
 6.83675  41.4814
 6.91725  42.1536
 6.99775  42.3125
 7.07825  42.7205
 7.15875  43.0525
 7.23925  43.7023
 7.31975  43.9709
 7.40025  44.0127
 7.48075  44.5175
 7.56125  44.3896
 7.64175  44.3776
 7.72225  44.6582
 7.80275  44.2372
 7.88325  44.0127
 7.96375  43.8373
 8.04425  43.6221
 8.12475  42.6375
 8.20525  41.9738
 8.28575  40.9869
 8.36625  40.3138
 8.44675  39.2493
 8.52725  38.0496
 8.60775  36.579
 8.68825  35.3412
 8.76875  34.1958
 8.84925  32.7618
 8.92975  31.735
 9.01025  30.6949
 9.09075  29.8025
 9.17125  28.8839
 9.25175  28.155
 9.33225  27.537
 9.41275  27.0983
 9.49325  26.6487
 9.57375  26.0532
 9.65425  25.4837
 9.73475  25.2424
 9.81525  25.0274
 9.89575  24.6506
 9.97625  24.4473
 10.0567  24.0714
 10.1373  23.8529
 10.2178  23.763
 10.2982  23.6225
 10.3788  23.3251
 10.4593  23.2222
 10.5397  23.2052
 10.6203  22.8402
 10.7007  22.9602
 10.7813  22.776
 10.8618  22.5843
 10.9422  22.5721
 11.0228  22.6047
 11.1033  22.315
 11.1837  22.4312
 11.2643  22.2555
 11.3447  22.3401
 11.4253  22.525
 11.5058  22.5186
 11.5862  24.2455
 11.6668  22.8312
 11.7473  22.3578
 11.8277  22.4139
 11.9083  22.2901
 11.9887  22.4626
 12.0693  22.6809
 12.1498  22.7639
 12.2302  22.4384
 12.3108  22.4
 12.3913  22.4493
 12.4718  22.4273
 12.5523  22.4652
 12.6328  22.8002
 12.7133  22.8746
 12.7938  23.0457
 12.8742  23.3356
 12.9548  23.6123
 13.0353  24.0701
 13.1158  24.8549
 13.1963  25.5934
 13.2768  26.5768
 13.3573  27.7028
 13.4378  28.4279
 13.5183  29.1815
 13.5988  29.7622
 13.6793  29.6586
 13.7598  29.4026
 13.8403  29.0329
 13.9208  29.8352
 14.0013  29.0798
 14.0818  27.4069
 14.1623  26.9131
 14.2428  26.4728
 14.3233  26.0864
 14.4038  25.9155
 14.4843  25.5766
 14.5648  25.3549
 14.6453  25.1061
 14.7258  25.0157
 14.8063  24.9095
 14.8868  24.8857
 14.9673  24.771
 15.0478  24.5848
 15.1283  24.6421
 15.2088  25.5596
 15.2892  24.5806
 15.3698  24.4291
 15.4503  24.4955
 15.5308  24.3669
 15.6113  24.3462
 15.6918  24.4909
 15.7723  24.5025
 15.8528  24.5048
 15.9332  24.7224
 16.0138  24.5164
 16.0943  24.6283
 16.1748  24.6806
 16.2553  25.1352
 16.3358  24.6891
 16.4163  24.5932
 16.4967  24.5931
 16.5773  24.4524
 16.6578  24.3682
 16.7383  24.3188
 16.8188  24.3803
 16.8992  24.3269
 16.9798  24.1106
 17.0603  24.1856
 17.1408  23.9436
 17.2213  24.0047
 17.3017  24.0752
 17.3823  23.9408
 17.4628  23.9763
 17.5433  23.7287
 17.6238  23.8396
 17.7042  23.6611
 17.7847  23.5084
 17.8653  23.5308
 17.9458  23.5264
 18.0263  23.6635
 18.1068  23.8157
 18.1872  23.5162
 18.2678  23.4094
 18.3483  23.4664
 18.4288  23.3687
 18.5093  23.4005
 18.5897  23.3965
 18.6703  23.2442
 18.7508  23.306
 18.8313  23.2493
 18.9118  23.2496
 18.9922  23.3831
 19.0727  23.4216
 19.1533  23.3047
 19.2338  23.2785
 19.3143  23.3702
 19.3948  23.4208
 19.4752  23.4243
 19.5558  23.3913
 19.6363  23.6739
 19.7168  24.2114
 19.7973  23.924
 19.8777  24.2048
 19.9582  23.5315
 20.0388  23.4874
 20.1193  23.5695
 20.1998  23.5411
 20.2803  23.5272
 20.3607  23.4883
 20.4413  23.5773
 20.5218  23.4364
 20.6023  23.6516
 20.6828  23.6548
 20.7632  24.2423
 20.8438  23.7499
 20.9243  23.646
 21.0048  23.6832
 21.0853  23.6195
 21.1658  23.6569
 21.2462  23.5527
 21.3268  23.6672
 21.4073  23.6755
 21.4878  23.7937
 21.5683  23.7587
 21.6487  23.8678
 21.7293  23.9128
 21.8098  23.9038
 21.8903  24.0654
 21.9708  24.075
 22.0512  24.2247
 22.1318  24.1182
 22.2123  24.1972
 22.2928  24.3364
 22.3733  24.2875
 22.4538  24.4006
 22.5343  24.7168
 22.6148  24.6574
 22.6953  24.9866
 22.7758  25.0475
 22.8563  25.4086
 22.9367  25.6186
 22.9943  25.9825

File: Data_0077.chi
F:\20151113_APS_34IDE\\Brian\Particle1\OCV\Data_0077.tif
2-Theta Angle (Degrees)
Intensity
       2000
 0.07475  0.0000000E+00
 0.15525  0.0000000E+00
 0.23575  0.0000000E+00
 0.31625  0.0000000E+00
 0.39675  0.0000000E+00
 0.47725  0.0000000E+00
 0.55775  0.0000000E+00
 0.63825  0.0000000E+00
 0.71875  0.0000000E+00
 0.79925  0.0000000E+00
 0.87975  0.0000000E+00
 0.96025  0.0000000E+00
 1.04075  0.0000000E+00
 1.12125  0.0000000E+00
 1.20175  0.0000000E+00
 1.28225  0.0000000E+00
 1.36275  0.0000000E+00
 1.44325  0.0000000E+00
 1.52375  0.0000000E+00
 1.60425  0.0000000E+00
 1.68475  0.0000000E+00
 1.76525  0.0000000E+00
 1.84575  0.0000000E+00
 1.92625  0.0000000E+00
 2.00675  0.0000000E+00
 2.08725  0.0000000E+00
 2.16775  0.0000000E+00
 2.24825  0.0000000E+00
 2.32875  0.0000000E+00
 2.40925  0.0000000E+00
 2.48975  0.0000000E+00
 2.57025  0.0000000E+00
 2.65075  0.0000000E+00
 2.73125  0.0000000E+00
 2.81175  0.0000000E+00
 2.89225  35.947
 2.97275  36.1142
 3.05325  35.7466
 3.13375  34.9851
 3.21425  34.8608
 3.29475  33.7175
 3.37525  35.2554
 3.45575  34.5117
 3.53625  33.3055
 3.61675  33.2409
 3.69725  32.6835
 3.77775  33.1474
 3.85825  32.7183
 3.93875  32.5473
 4.01925  32.4727
 4.09975  32.6831
 4.18025  32.1374
 4.26075  32.2454
 4.34125  32.1044
 4.42175  32.0661
 4.50225  32.6489
 4.58275  33.0195
 4.66325  32.7065
 4.74375  32.5735
 4.82425  32.5089
 4.90475  32.4542
 4.98525  33.0052
 5.06575  33.0453
 5.14625  33.6741
 5.22675  33.9825
 5.30725  34.0797
 5.38775  34.7152
 5.46825  34.6575
 5.54875  34.878
 5.62925  34.8785
 5.70975  35.3041
 5.79025  35.6967
 5.87075  35.7413
 5.95125  38.8428
 6.03175  38.9072
 6.11225  36.6257
 6.19275  37.0045
 6.27325  37.5619
 6.35375  38.2812
 6.43425  38.6222
 6.51475  39.0862
 6.59525  39.825
 6.67575  40.2922
 6.75625  40.6702
 6.83675  41.324
 6.91725  41.789
 6.99775  42.3198
 7.07825  42.6131
 7.15875  43.3532
 7.23925  43.9699
 7.31975  43.9113
 7.40025  44.1061
 7.48075  44.1423
 7.56125  44.4127
 7.64175  44.3886
 7.72225  44.489
 7.80275  44.4716
 7.88325  43.7474
 7.96375  43.6567
 8.04425  43.3118
 8.12475  42.8865
 8.20525  42.2062
 8.28575  41.1095
 8.36625  40.3634
 8.44675  38.7004
 8.52725  37.7442
 8.60775  36.3497
 8.68825  35.2144
 8.76875  33.9262
 8.84925  32.8015
 8.92975  31.9099
 9.01025  30.7008
 9.09075  29.7503
 9.17125  29.0702
 9.25175  28.0991
 9.33225  27.4252
 9.41275  27.0054
 9.49325  26.421
 9.57375  25.9318
 9.65425  25.58
 9.73475  25.0457
 9.81525  24.8243
 9.89575  24.3353
 9.97625  24.2618
 10.0567  24.0531
 10.1373  23.7666
 10.2178  23.6984
 10.2982  23.4782
 10.3788  23.0999
 10.4593  23.0559
 10.5397  23.0941
 10.6203  22.8507
 10.7007  22.8576
 10.7813  22.7673
 10.8618  22.7038
 10.9422  22.6706
 11.0228  22.5153
 11.1033  22.5945
 11.1837  22.3983
 11.2643  22.3692
 11.3447  22.2164
 11.4253  22.577
 11.5058  22.3457
 11.5862  24.0665
 11.6668  22.4745
 11.7473  22.305
 11.8277  22.2181
 11.9083  22.3508
 11.9887  22.373
 12.0693  22.4934
 12.1498  22.5721
 12.2302  22.3019
 12.3108  22.6506
 12.3913  22.4485
 12.4718  22.5655
 12.5523  22.7326
 12.6328  22.8406
 12.7133  22.8069
 12.7938  23.0058
 12.8742  23.2487
 12.9548  23.5389
 13.0353  23.9369
 13.1158  24.8538
 13.1963  25.505
 13.2768  26.7151
 13.3573  27.6794
 13.4378  28.4674
 13.5183  29.3039
 13.5988  29.658
 13.6793  29.6685
 13.7598  29.0062
 13.8403  29.1089
 13.9208  34.2531
 14.0013  31.5343
 14.0818  27.4613
 14.1623  26.9451
 14.2428  26.4368
 14.3233  26.1924
 14.4038  25.7907
 14.4843  25.5101
 14.5648  25.3884
 14.6453  25.2323
 14.7258  25.0971
 14.8063  24.9173
 14.8868  24.6114
 14.9673  24.6891
 15.0478  24.7688
 15.1283  24.6162
 15.2088  25.2935
 15.2892  24.6115
 15.3698  24.3708
 15.4503  24.298
 15.5308  24.4212
 15.6113  24.3836
 15.6918  24.3185
 15.7723  24.5041
 15.8528  24.3962
 15.9332  24.4981
 16.0138  24.4926
 16.0943  24.6204
 16.1748  24.618
 16.2553  24.9702
 16.3358  24.749
 16.4163  24.6389
 16.4967  24.5993
 16.5773  24.5604
 16.6578  24.363
 16.7383  24.3239
 16.8188  24.2691
 16.8992  24.2327
 16.9798  24.1058
 17.0603  23.8927
 17.1408  23.9678
 17.2213  24.0221
 17.3017  23.8797
 17.3823  23.8944
 17.4628  23.8723
 17.5433  23.8529
 17.6238  23.6598
 17.7042  23.6826
 17.7847  23.6358
 17.8653  23.5945
 17.9458  23.611
 18.0263  23.8183
 18.1068  24.6213
 18.1872  23.6148
 18.2678  23.4274
 18.3483  23.2951
 18.4288  23.3978
 18.5093  23.3772
 18.5897  23.3987
 18.6703  23.3294
 18.7508  23.3823
 18.8313  23.3406
 18.9118  23.3599
 18.9922  23.3313
 19.0727  23.4256
 19.1533  23.4021
 19.2338  23.1673
 19.3143  23.3716
 19.3948  23.4768
 19.4752  23.3472
 19.5558  23.4313
 19.6363  23.4996
 19.7168  24.2076
 19.7973  23.8933
 19.8777  24.4223
 19.9582  23.5628
 20.0388  23.5067
 20.1193  23.34
 20.1998  23.4373
 20.2803  23.3737
 20.3607  23.3469
 20.4413  23.4914
 20.5218  23.3423
 20.6023  23.622
 20.6828  23.6725
 20.7632  24.2664
 20.8438  23.8145
 20.9243  23.8329
 21.0048  23.688
 21.0853  23.6348
 21.1658  23.6515
 21.2462  23.7492
 21.3268  23.6842
 21.4073  23.739
 21.4878  23.806
 21.5683  23.8023
 21.6487  23.864
 21.7293  23.9695
 21.8098  24.0391
 21.8903  24.0523
 21.9708  24.0042
 22.0512  24.2336
 22.1318  24.2404
 22.2123  24.2008
 22.2928  24.2522
 22.3733  24.4195
 22.4538  24.4943
 22.5343  24.6277
 22.6148  24.5749
 22.6953  24.9201
 22.7758  25.1368
 22.8563  25.3185
 22.9367  25.7883
 22.9943  26.1429