Folder: scimap-tests/test-data-xrd/xrd-map-34-ID-E (part 19)

File: Data_0078.chi
F:\20151113_APS_34IDE\\Brian\Particle1\OCV\Data_0078.tif
2-Theta Angle (Degrees)
Intensity
       2000
 0.07475  0.0000000E+00
 0.15525  0.0000000E+00
 0.23575  0.0000000E+00
 0.31625  0.0000000E+00
 0.39675  0.0000000E+00
 0.47725  0.0000000E+00
 0.55775  0.0000000E+00
 0.63825  0.0000000E+00
 0.71875  0.0000000E+00
 0.79925  0.0000000E+00
 0.87975  0.0000000E+00
 0.96025  0.0000000E+00
 1.04075  0.0000000E+00
 1.12125  0.0000000E+00
 1.20175  0.0000000E+00
 1.28225  0.0000000E+00
 1.36275  0.0000000E+00
 1.44325  0.0000000E+00
 1.52375  0.0000000E+00
 1.60425  0.0000000E+00
 1.68475  0.0000000E+00
 1.76525  0.0000000E+00
 1.84575  0.0000000E+00
 1.92625  0.0000000E+00
 2.00675  0.0000000E+00
 2.08725  0.0000000E+00
 2.16775  0.0000000E+00
 2.24825  0.0000000E+00
 2.32875  0.0000000E+00
 2.40925  0.0000000E+00
 2.48975  0.0000000E+00
 2.57025  0.0000000E+00
 2.65075  0.0000000E+00
 2.73125  0.0000000E+00
 2.81175  0.0000000E+00
 2.89225  35.2341
 2.97275  36.1886
 3.05325  35.8527
 3.13375  35.1539
 3.21425  35.7704
 3.29475  33.9643
 3.37525  35.5371
 3.45575  34.085
 3.53625  33.3895
 3.61675  33.7335
 3.69725  33.2281
 3.77775  33.0857
 3.85825  33.1667
 3.93875  32.3932
 4.01925  32.8349
 4.09975  32.2133
 4.18025  32.2061
 4.26075  32.1786
 4.34125  32.468
 4.42175  32.6073
 4.50225  32.683
 4.58275  32.8487
 4.66325  33.1035
 4.74375  33.1745
 4.82425  32.7305
 4.90475  32.8745
 4.98525  33.0209
 5.06575  33.1557
 5.14625  33.8844
 5.22675  34.0757
 5.30725  34.1448
 5.38775  34.4762
 5.46825  34.7143
 5.54875  35.2123
 5.62925  35.318
 5.70975  35.8752
 5.79025  36.4296
 5.87075  37.0594
 5.95125  57.6658
 6.03175  55.9711
 6.11225  37.9144
 6.19275  37.607
 6.27325  37.6511
 6.35375  38.2349
 6.43425  38.2049
 6.51475  39.2217
 6.59525  39.7031
 6.67575  40.3108
 6.75625  41.0549
 6.83675  41.5479
 6.91725  42.1955
 6.99775  42.6414
 7.07825  42.8648
 7.15875  43.4477
 7.23925  43.7529
 7.31975  43.4964
 7.40025  44.2353
 7.48075  44.5124
 7.56125  44.5302
 7.64175  44.6644
 7.72225  44.4657
 7.80275  44.7383
 7.88325  44.047
 7.96375  43.683
 8.04425  43.0583
 8.12475  43.0749
 8.20525  42.0199
 8.28575  41.0753
 8.36625  40.4026
 8.44675  38.7097
 8.52725  37.6907
 8.60775  36.4596
 8.68825  35.2624
 8.76875  34.024
 8.84925  32.9343
 8.92975  31.7202
 9.01025  30.6873
 9.09075  29.9293
 9.17125  28.9427
 9.25175  28.3595
 9.33225  27.6024
 9.41275  27.1543
 9.49325  26.4991
 9.57375  25.8978
 9.65425  25.5898
 9.73475  25.1955
 9.81525  24.9496
 9.89575  24.6956
 9.97625  24.2695
 10.0567  24.2931
 10.1373  23.9049
 10.2178  23.8218
 10.2982  23.6304
 10.3788  23.4469
 10.4593  23.2646
 10.5397  23.0656
 10.6203  23.1444
 10.7007  23.0898
 10.7813  22.8415
 10.8618  22.7946
 10.9422  22.7499
 11.0228  22.6076
 11.1033  22.5432
 11.1837  22.6029
 11.2643  22.4616
 11.3447  22.7441
 11.4253  22.937
 11.5058  23.4979
 11.5862  40.0429
 11.6668  25.5322
 11.7473  22.9203
 11.8277  22.7663
 11.9083  22.978
 11.9887  24.025
 12.0693  23.5766
 12.1498  23.2937
 12.2302  22.5355
 12.3108  22.5817
 12.3913  22.5191
 12.4718  22.6771
 12.5523  22.8026
 12.6328  22.9762
 12.7133  22.9419
 12.7938  23.1937
 12.8742  23.4063
 12.9548  23.8109
 13.0353  24.197
 13.1158  24.9793
 13.1963  25.692
 13.2768  26.7934
 13.3573  27.7148
 13.4378  28.6865
 13.5183  29.4571
 13.5988  29.9737
 13.6793  29.8908
 13.7598  29.6631
 13.8403  29.7009
 13.9208  34.4283
 14.0013  34.8192
 14.0818  27.9957
 14.1623  27.2473
 14.2428  26.6615
 14.3233  26.2517
 14.4038  26.0551
 14.4843  25.6061
 14.5648  25.5751
 14.6453  25.3703
 14.7258  25.3482
 14.8063  25.0226
 14.8868  24.8284
 14.9673  24.8388
 15.0478  24.8561
 15.1283  25.0759
 15.2088  27.5558
 15.2892  24.8678
 15.3698  24.5719
 15.4503  24.5877
 15.5308  24.569
 15.6113  24.647
 15.6918  24.7277
 15.7723  24.7578
 15.8528  24.7419
 15.9332  24.5613
 16.0138  24.8218
 16.0943  24.8825
 16.1748  25.3964
 16.2553  29.4346
 16.3358  25.3039
 16.4163  24.9266
 16.4967  24.7767
 16.5773  24.6624
 16.6578  24.6471
 16.7383  24.6405
 16.8188  24.4458
 16.8992  24.6101
 16.9798  24.4322
 17.0603  24.3141
 17.1408  24.3731
 17.2213  24.2867
 17.3017  24.2421
 17.3823  24.0696
 17.4628  24.027
 17.5433  24.0741
 17.6238  24.0934
 17.7042  23.9283
 17.7847  23.9519
 17.8653  23.9391
 17.9458  23.9302
 18.0263  24.4971
 18.1068  26.7911
 18.1872  24.4935
 18.2678  23.8449
 18.3483  23.753
 18.4288  23.7303
 18.5093  23.6317
 18.5897  23.6197
 18.6703  23.525
 18.7508  23.4915
 18.8313  23.6047
 18.9118  23.3726
 18.9922  23.5041
 19.0727  23.7025
 19.1533  23.5669
 19.2338  23.6014
 19.3143  23.6671
 19.3948  23.6977
 19.4752  23.7409
 19.5558  23.919
 19.6363  24.43
 19.7168  27.6989
 19.7973  25.7141
 19.8777  28.5308
 19.9582  24.3541
 20.0388  23.9586
 20.1193  23.8525
 20.1998  23.83
 20.2803  23.8585
 20.3607  23.8
 20.4413  23.9354
 20.5218  23.8308
 20.6023  24.0801
 20.6828  24.6192
 20.7632  29.2866
 20.8438  24.668
 20.9243  24.0847
 21.0048  24.1056
 21.0853  24.1035
 21.1658  23.9686
 21.2462  23.9629
 21.3268  23.9726
 21.4073  24.0929
 21.4878  24.074
 21.5683  24.0825
 21.6487  24.1922
 21.7293  24.2204
 21.8098  24.2889
 21.8903  24.2158
 21.9708  24.3948
 22.0512  24.4442
 22.1318  24.4561
 22.2123  24.4541
 22.2928  24.4049
 22.3733  24.5849
 22.4538  24.7147
 22.5343  24.9316
 22.6148  25.0153
 22.6953  25.249
 22.7758  25.4184
 22.8563  25.5937
 22.9367  26.0258
 22.9943  26.4829

File: Data_0079.chi
F:\20151113_APS_34IDE\\Brian\Particle1\OCV\Data_0079.tif
2-Theta Angle (Degrees)
Intensity
       2000
 0.07475  0.0000000E+00
 0.15525  0.0000000E+00
 0.23575  0.0000000E+00
 0.31625  0.0000000E+00
 0.39675  0.0000000E+00
 0.47725  0.0000000E+00
 0.55775  0.0000000E+00
 0.63825  0.0000000E+00
 0.71875  0.0000000E+00
 0.79925  0.0000000E+00
 0.87975  0.0000000E+00
 0.96025  0.0000000E+00
 1.04075  0.0000000E+00
 1.12125  0.0000000E+00
 1.20175  0.0000000E+00
 1.28225  0.0000000E+00
 1.36275  0.0000000E+00
 1.44325  0.0000000E+00
 1.52375  0.0000000E+00
 1.60425  0.0000000E+00
 1.68475  0.0000000E+00
 1.76525  0.0000000E+00
 1.84575  0.0000000E+00
 1.92625  0.0000000E+00
 2.00675  0.0000000E+00
 2.08725  0.0000000E+00
 2.16775  0.0000000E+00
 2.24825  0.0000000E+00
 2.32875  0.0000000E+00
 2.40925  0.0000000E+00
 2.48975  0.0000000E+00
 2.57025  0.0000000E+00
 2.65075  0.0000000E+00
 2.73125  0.0000000E+00
 2.81175  0.0000000E+00
 2.89225  35.8566
 2.97275  36.1313
 3.05325  35.7495
 3.13375  35.1286
 3.21425  35.756
 3.29475  35.8362
 3.37525  36.0772
 3.45575  34.0521
 3.53625  34.0796
 3.61675  34.1282
 3.69725  32.9799
 3.77775  32.8137
 3.85825  33.339
 3.93875  32.1767
 4.01925  32.4343
 4.09975  32.3948
 4.18025  33.1615
 4.26075  32.3951
 4.34125  32.3819
 4.42175  32.5267
 4.50225  32.7169
 4.58275  32.9386
 4.66325  33.0153
 4.74375  32.8535
 4.82425  32.8273
 4.90475  33.0659
 4.98525  32.9708
 5.06575  33.3566
 5.14625  34.0462
 5.22675  33.9666
 5.30725  34.0243
 5.38775  34.4966
 5.46825  34.6056
 5.54875  35.1465
 5.62925  35.4841
 5.70975  35.612
 5.79025  35.9221
 5.87075  37.4952
 5.95125  61.5562
 6.03175  44.4071
 6.11225  37.3245
 6.19275  37.4555
 6.27325  37.9423
 6.35375  38.3449
 6.43425  38.3085
 6.51475  39.2834
 6.59525  39.6713
 6.67575  40.3059
 6.75625  40.8966
 6.83675  41.6995
 6.91725  41.7624
 6.99775  42.7061
 7.07825  42.6741
 7.15875  43.1456
 7.23925  43.6657
 7.31975  43.7731
 7.40025  43.9955
 7.48075  44.3471
 7.56125  44.648
 7.64175  44.5932
 7.72225  44.3396
 7.80275  44.3439
 7.88325  44.1815
 7.96375  43.6976
 8.04425  43.2964
 8.12475  42.8513
 8.20525  41.8473
 8.28575  40.8388
 8.36625  39.8795
 8.44675  38.8343
 8.52725  37.6708
 8.60775  36.451
 8.68825  35.2912
 8.76875  33.9998
 8.84925  32.7163
 8.92975  31.6822
 9.01025  30.7727
 9.09075  29.8985
 9.17125  28.9198
 9.25175  28.0652
 9.33225  27.477
 9.41275  26.8587
 9.49325  26.4851
 9.57375  25.967
 9.65425  25.733
 9.73475  25.312
 9.81525  24.9941
 9.89575  24.612
 9.97625  24.3792
 10.0567  24.1966
 10.1373  23.9545
 10.2178  23.8512
 10.2982  23.5984
 10.3788  23.4872
 10.4593  23.4013
 10.5397  23.2569
 10.6203  23.3119
 10.7007  23.1174
 10.7813  22.9456
 10.8618  22.7995
 10.9422  22.8734
 11.0228  22.6702
 11.1033  22.5494
 11.1837  22.5268
 11.2643  22.4984
 11.3447  22.8124
 11.4253  23.0456
 11.5058  23.8653
 11.5862  44.0316
 11.6668  25.4892
 11.7473  23.028
 11.8277  22.8294
 11.9083  22.9234
 11.9887  24.6968
 12.0693  24.8004
 12.1498  24.4047
 12.2302  22.815
 12.3108  22.6912
 12.3913  22.7098
 12.4718  22.8504
 12.5523  22.7868
 12.6328  22.9164
 12.7133  23.0588
 12.7938  23.1731
 12.8742  23.4689
 12.9548  23.7718
 13.0353  24.59
 13.1158  24.9816
 13.1963  25.7892
 13.2768  26.6772
 13.3573  27.8099
 13.4378  28.8132
 13.5183  29.4215
 13.5988  29.807
 13.6793  29.9619
 13.7598  29.6839
 13.8403  29.7054
 13.9208  36.4281
 14.0013  47.1414
 14.0818  28.7127
 14.1623  27.4761
 14.2428  27.0293
 14.3233  26.395
 14.4038  26.0448
 14.4843  25.7973
 14.5648  25.6385
 14.6453  25.5703
 14.7258  25.1873
 14.8063  25.1325
 14.8868  24.9188
 14.9673  24.9657
 15.0478  24.9949
 15.1283  25.3633
 15.2088  30.0896
 15.2892  25.1242
 15.3698  24.7023
 15.4503  24.6533
 15.5308  24.7015
 15.6113  24.6234
 15.6918  24.6912
 15.7723  24.6896
 15.8528  24.6632
 15.9332  24.7454
 16.0138  24.6751
 16.0943  24.748
 16.1748  25.0964
 16.2553  27.6626
 16.3358  25.2408
 16.4163  24.875
 16.4967  24.6632
 16.5773  24.8476
 16.6578  24.575
 16.7383  24.587
 16.8188  24.5102
 16.8992  24.5013
 16.9798  24.4883
 17.0603  24.2928
 17.1408  24.4079
 17.2213  24.3648
 17.3017  24.2202
 17.3823  24.0799
 17.4628  24.1098
 17.5433  23.8633
 17.6238  23.9756
 17.7042  23.9647
 17.7847  23.9771
 17.8653  23.9627
 17.9458  24.0446
 18.0263  25.6687
 18.1068  28.4186
 18.1872  24.6502
 18.2678  23.811
 18.3483  23.7722
 18.4288  23.6447
 18.5093  23.6792
 18.5897  23.6307
 18.6703  23.5554
 18.7508  23.656
 18.8313  23.568
 18.9118  23.6032
 18.9922  23.6155
 19.0727  23.623
 19.1533  23.8176
 19.2338  23.604
 19.3143  23.7056
 19.3948  23.8682
 19.4752  23.8256
 19.5558  23.9551
 19.6363  24.7883
 19.7168  30.0906
 19.7973  26.6124
 19.8777  32.1041
 19.9582  24.9622
 20.0388  24.0793
 20.1193  23.998
 20.1998  23.8089
 20.2803  23.7867
 20.3607  23.7583
 20.4413  23.8776
 20.5218  23.8723
 20.6023  24.2977
 20.6828  24.9007
 20.7632  31.3355
 20.8438  24.8767
 20.9243  24.2915
 21.0048  24.1716
 21.0853  24.0621
 21.1658  23.8483
 21.2462  23.9753
 21.3268  23.9698
 21.4073  23.9987
 21.4878  24.0195
 21.5683  24.024
 21.6487  24.2439
 21.7293  24.1614
 21.8098  24.2868
 21.8903  24.1473
 21.9708  24.2266
 22.0512  24.4223
 22.1318  24.5154
 22.2123  24.3518
 22.2928  24.5716
 22.3733  24.705
 22.4538  24.8107
 22.5343  24.8417
 22.6148  24.9204
 22.6953  25.0997
 22.7758  25.3463
 22.8563  25.5956
 22.9367  26.0546
 22.9943  26.2709

File: Data_0080.chi
F:\20151113_APS_34IDE\\Brian\Particle1\OCV\Data_0080.tif
2-Theta Angle (Degrees)
Intensity
       2000
 0.07475  0.0000000E+00
 0.15525  0.0000000E+00
 0.23575  0.0000000E+00
 0.31625  0.0000000E+00
 0.39675  0.0000000E+00
 0.47725  0.0000000E+00
 0.55775  0.0000000E+00
 0.63825  0.0000000E+00
 0.71875  0.0000000E+00
 0.79925  0.0000000E+00
 0.87975  0.0000000E+00
 0.96025  0.0000000E+00
 1.04075  0.0000000E+00
 1.12125  0.0000000E+00
 1.20175  0.0000000E+00
 1.28225  0.0000000E+00
 1.36275  0.0000000E+00
 1.44325  0.0000000E+00
 1.52375  0.0000000E+00
 1.60425  0.0000000E+00
 1.68475  0.0000000E+00
 1.76525  0.0000000E+00
 1.84575  0.0000000E+00
 1.92625  0.0000000E+00
 2.00675  0.0000000E+00
 2.08725  0.0000000E+00
 2.16775  0.0000000E+00
 2.24825  0.0000000E+00
 2.32875  0.0000000E+00
 2.40925  0.0000000E+00
 2.48975  0.0000000E+00
 2.57025  0.0000000E+00
 2.65075  0.0000000E+00
 2.73125  0.0000000E+00
 2.81175  0.0000000E+00
 2.89225  34.1959
 2.97275  35.2447
 3.05325  35.7312
 3.13375  35.6924
 3.21425  35.4307
 3.29475  35.9822
 3.37525  35.2756
 3.45575  33.4976
 3.53625  34.123
 3.61675  33.4481
 3.69725  33.5946
 3.77775  33.2524
 3.85825  32.8966
 3.93875  32.9534
 4.01925  32.8533
 4.09975  32.2824
 4.18025  32.1361
 4.26075  32.044
 4.34125  32.2067
 4.42175  32.5542
 4.50225  32.6089
 4.58275  32.1735
 4.66325  33.0452
 4.74375  32.6818
 4.82425  32.3017
 4.90475  32.9091
 4.98525  32.8028
 5.06575  33.1611
 5.14625  33.5028
 5.22675  33.9516
 5.30725  34.4598
 5.38775  34.4114
 5.46825  34.9608
 5.54875  34.8472
 5.62925  35.5045
 5.70975  35.6164
 5.79025  35.9018
 5.87075  36.3026
 5.95125  47.2632
 6.03175  47.0665
 6.11225  37.203
 6.19275  37.1491
 6.27325  37.6736
 6.35375  38.0486
 6.43425  38.2507
 6.51475  38.8303
 6.59525  39.4722
 6.67575  40.0396
 6.75625  40.7924
 6.83675  41.4114
 6.91725  41.9898
 6.99775  42.2533
 7.07825  42.7108
 7.15875  42.9798
 7.23925  43.3395
 7.31975  43.5446
 7.40025  43.6541
 7.48075  44.2408
 7.56125  44.5885
 7.64175  44.5705
 7.72225  44.4577
 7.80275  44.1924
 7.88325  43.8395
 7.96375  43.6386
 8.04425  43.3436
 8.12475  42.5922
 8.20525  41.8315
 8.28575  41.0507
 8.36625  39.6413
 8.44675  38.8138
 8.52725  37.4663
 8.60775  36.3166
 8.68825  34.9878
 8.76875  33.9814
 8.84925  32.7603
 8.92975  31.843
 9.01025  30.5537
 9.09075  29.7964
 9.17125  29.1293
 9.25175  28.2358
 9.33225  27.4592
 9.41275  26.9197
 9.49325  26.6573
 9.57375  26.1463
 9.65425  25.4474
 9.73475  25.1587
 9.81525  24.9295
 9.89575  24.4334
 9.97625  24.4247
 10.0567  24.1517
 10.1373  23.9315
 10.2178  23.94
 10.2982  23.5792
 10.3788  23.4941
 10.4593  23.1676
 10.5397  23.1907
 10.6203  23.1783
 10.7007  23.0193
 10.7813  22.8695
 10.8618  22.8224
 10.9422  22.7438
 11.0228  22.6171
 11.1033  22.634
 11.1837  22.6257
 11.2643  22.6697
 11.3447  22.7341
 11.4253  23.2269
 11.5058  24.0487
 11.5862  47.1493
 11.6668  24.94
 11.7473  22.9584
 11.8277  22.7631
 11.9083  22.8019
 11.9887  23.8853
 12.0693  25.1189
 12.1498  25.2034
 12.2302  22.7284
 12.3108  22.7451
 12.3913  22.7411
 12.4718  22.828
 12.5523  22.6544
 12.6328  22.9493
 12.7133  23.0706
 12.7938  23.2393
 12.8742  23.5401
 12.9548  23.9465
 13.0353  24.2277
 13.1158  24.9412
 13.1963  25.7169
 13.2768  26.6343
 13.3573  27.4968
 13.4378  28.6258
 13.5183  29.2212
 13.5988  29.7031
 13.6793  29.6742
 13.7598  29.5413
 13.8403  29.6585
 13.9208  33.442
 14.0013  35.5822
 14.0818  27.9442
 14.1623  27.3082
 14.2428  26.7741
 14.3233  26.2728
 14.4038  26.5909
 14.4843  25.8899
 14.5648  25.749
 14.6453  25.3178
 14.7258  25.2249
 14.8063  25.2774
 14.8868  25.1214
 14.9673  25.0781
 15.0478  25.1051
 15.1283  25.3149
 15.2088  27.8686
 15.2892  24.9473
 15.3698  24.6122
 15.4503  24.6724
 15.5308  24.5812
 15.6113  24.5841
 15.6918  24.6812
 15.7723  24.6737
 15.8528  24.6066
 15.9332  24.8323
 16.0138  24.8921
 16.0943  24.9214
 16.1748  25.0308
 16.2553  27.1201
 16.3358  25.0881
 16.4163  24.9039
 16.4967  24.7961
 16.5773  24.7293
 16.6578  24.5904
 16.7383  24.7682
 16.8188  24.5326
 16.8992  24.5644
 16.9798  24.4874
 17.0603  24.3882
 17.1408  24.385
 17.2213  24.3033
 17.3017  24.2011
 17.3823  24.1071
 17.4628  24.0557
 17.5433  23.9994
 17.6238  24.1042
 17.7042  23.9791
 17.7847  24.029
 17.8653  24.003
 17.9458  24.1061
 18.0263  25.1663
 18.1068  27.8487
 18.1872  24.6158
 18.2678  23.9417
 18.3483  23.7439
 18.4288  23.8433
 18.5093  23.6601
 18.5897  23.631
 18.6703  23.6821
 18.7508  23.6456
 18.8313  23.6282
 18.9118  23.699
 18.9922  23.5291
 19.0727  23.5575
 19.1533  23.7777
 19.2338  23.7038
 19.3143  23.8871
 19.3948  23.9381
 19.4752  23.9258
 19.5558  24.2835
 19.6363  25.0554
 19.7168  30.0231
 19.7973  36.3311
 19.8777  38.2565
 19.9582  25.5131
 20.0388  24.5871
 20.1193  24.3285
 20.1998  24.1384
 20.2803  24.0935
 20.3607  24.0896
 20.4413  23.974
 20.5218  23.8827
 20.6023  24.1922
 20.6828  24.4002
 20.7632  26.8106
 20.8438  24.544
 20.9243  24.203
 21.0048  23.9417
 21.0853  24.143
 21.1658  23.9808
 21.2462  24.0576
 21.3268  24.0724
 21.4073  24.0951
 21.4878  24.205
 21.5683  24.0903
 21.6487  24.1632
 21.7293  24.2488
 21.8098  24.2799
 21.8903  24.2239
 21.9708  24.3717
 22.0512  24.4094
 22.1318  24.5172
 22.2123  24.4762
 22.2928  24.6553
 22.3733  24.6918
 22.4538  24.8394
 22.5343  24.9338
 22.6148  24.9646
 22.6953  25.3411
 22.7758  25.5252
 22.8563  25.7719
 22.9367  26.157
 22.9943  26.7785

File: Data_0081.chi
F:\20151113_APS_34IDE\\Brian\Particle1\OCV\Data_0081.tif
2-Theta Angle (Degrees)
Intensity
       2000
 0.07475  0.0000000E+00
 0.15525  0.0000000E+00
 0.23575  0.0000000E+00
 0.31625  0.0000000E+00
 0.39675  0.0000000E+00
 0.47725  0.0000000E+00
 0.55775  0.0000000E+00
 0.63825  0.0000000E+00
 0.71875  0.0000000E+00
 0.79925  0.0000000E+00
 0.87975  0.0000000E+00
 0.96025  0.0000000E+00
 1.04075  0.0000000E+00
 1.12125  0.0000000E+00
 1.20175  0.0000000E+00
 1.28225  0.0000000E+00
 1.36275  0.0000000E+00
 1.44325  0.0000000E+00
 1.52375  0.0000000E+00
 1.60425  0.0000000E+00
 1.68475  0.0000000E+00
 1.76525  0.0000000E+00
 1.84575  0.0000000E+00
 1.92625  0.0000000E+00
 2.00675  0.0000000E+00
 2.08725  0.0000000E+00
 2.16775  0.0000000E+00
 2.24825  0.0000000E+00
 2.32875  0.0000000E+00
 2.40925  0.0000000E+00
 2.48975  0.0000000E+00
 2.57025  0.0000000E+00
 2.65075  0.0000000E+00
 2.73125  0.0000000E+00
 2.81175  0.0000000E+00
 2.89225  34.2785
 2.97275  34.8694
 3.05325  35.5174
 3.13375  33.8733
 3.21425  34.4738
 3.29475  33.7048
 3.37525  33.4381
 3.45575  34.152
 3.53625  33.3768
 3.61675  33.1364
 3.69725  32.7835
 3.77775  32.8764
 3.85825  31.982
 3.93875  32.7366
 4.01925  31.616
 4.09975  32.0057
 4.18025  31.4985
 4.26075  31.2735
 4.34125  31.8322
 4.42175  32.1017
 4.50225  32.3554
 4.58275  32.3644
 4.66325  32.6121
 4.74375  32.5015
 4.82425  32.1033
 4.90475  32.6745
 4.98525  32.8759
 5.06575  33.3013
 5.14625  33.8225
 5.22675  33.7832
 5.30725  34.0988
 5.38775  34.4269
 5.46825  34.4053
 5.54875  34.9623
 5.62925  35.4583
 5.70975  36.0246
 5.79025  36.4669
 5.87075  38.5744
 5.95125  85.3846
 6.03175  79.864
 6.11225  39.3621
 6.19275  37.5105
 6.27325  37.7949
 6.35375  38.3271
 6.43425  38.5103
 6.51475  38.887
 6.59525  39.4728
 6.67575  39.9391
 6.75625  40.5054
 6.83675  41.3161
 6.91725  41.7153
 6.99775  42.1524
 7.07825  42.6629
 7.15875  43.3921
 7.23925  43.2218
 7.31975  43.5903
 7.40025  43.7234
 7.48075  43.6972
 7.56125  43.7865
 7.64175  44.1992
 7.72225  44.0812
 7.80275  43.8644
 7.88325  43.6365
 7.96375  43.3429
 8.04425  42.7565
 8.12475  42.3977
 8.20525  41.7405
 8.28575  40.9833
 8.36625  39.4644
 8.44675  38.4231
 8.52725  37.5515
 8.60775  35.9735
 8.68825  34.9265
 8.76875  33.6181
 8.84925  32.9028
 8.92975  31.5219
 9.01025  30.5086
 9.09075  29.7736
 9.17125  28.8904
 9.25175  28.0598
 9.33225  27.3521
 9.41275  26.8267
 9.49325  26.3223
 9.57375  25.6506
 9.65425  25.4262
 9.73475  25.2243
 9.81525  24.9745
 9.89575  24.6877
 9.97625  24.2849
 10.0567  24.1486
 10.1373  23.964
 10.2178  23.6785
 10.2982  23.6931
 10.3788  23.4868
 10.4593  23.309
 10.5397  23.1888
 10.6203  23.0395
 10.7007  23.18
 10.7813  22.8637
 10.8618  22.8321
 10.9422  22.7047
 11.0228  22.6791
 11.1033  22.501
 11.1837  22.5579
 11.2643  22.3106
 11.3447  22.5919
 11.4253  22.7939
 11.5058  23.1856
 11.5862  32.4459
 11.6668  24.7026
 11.7473  22.6646
 11.8277  22.6002
 11.9083  22.7756
 11.9887  24.3979
 12.0693  25.2131
 12.1498  25.9292
 12.2302  22.6091
 12.3108  22.6277
 12.3913  22.7184
 12.4718  22.6774
 12.5523  22.8098
 12.6328  22.9246
 12.7133  22.9529
 12.7938  23.0646
 12.8742  23.3717
 12.9548  23.8094
 13.0353  24.1952
 13.1158  24.8308
 13.1963  25.6036
 13.2768  26.5247
 13.3573  27.5338
 13.4378  28.3874
 13.5183  29.3297
 13.5988  29.7908
 13.6793  29.8357
 13.7598  29.5589
 13.8403  29.8975
 13.9208  37.2284
 14.0013  40.2011
 14.0818  28.2053
 14.1623  27.2644
 14.2428  26.5646
 14.3233  26.4495
 14.4038  25.9888
 14.4843  25.6511
 14.5648  25.3974
 14.6453  25.3394
 14.7258  25.4136
 14.8063  25.0723
 14.8868  24.9445
 14.9673  24.8801
 15.0478  25.0248
 15.1283  25.6998
 15.2088  30.8147
 15.2892  25.3577
 15.3698  24.8557
 15.4503  24.578
 15.5308  24.698
 15.6113  24.5509
 15.6918  24.5738
 15.7723  24.6631
 15.8528  24.6136
 15.9332  24.6449
 16.0138  24.4262
 16.0943  24.7288
 16.1748  24.8326
 16.2553  26.4302
 16.3358  25.0764
 16.4163  24.8781
 16.4967  24.8391
 16.5773  24.6524
 16.6578  24.5083
 16.7383  24.6274
 16.8188  24.5513
 16.8992  24.3911
 16.9798  24.3138
 17.0603  24.2327
 17.1408  24.3372
 17.2213  24.2596
 17.3017  24.1981
 17.3823  24.0271
 17.4628  24.123
 17.5433  23.9642
 17.6238  23.966
 17.7042  23.8693
 17.7847  23.8293
 17.8653  23.9014
 17.9458  24.1221
 18.0263  25.6046
 18.1068  28.7248
 18.1872  24.7674
 18.2678  23.8606
 18.3483  23.7799
 18.4288  23.7703
 18.5093  23.7391
 18.5897  23.6323
 18.6703  23.6431
 18.7508  23.5401
 18.8313  23.5633
 18.9118  23.6338
 18.9922  23.5466
 19.0727  23.7592
 19.1533  23.6782
 19.2338  23.6646
 19.3143  23.6442
 19.3948  23.8007
 19.4752  23.9943
 19.5558  24.0889
 19.6363  25.0338
 19.7168  32.8396
 19.7973  28.3674
 19.8777  37.0156
 19.9582  25.0613
 20.0388  24.2881
 20.1193  24.0518
 20.1998  24.0143
 20.2803  23.9173
 20.3607  23.9726
 20.4413  23.8405
 20.5218  23.8107
 20.6023  24.0837
 20.6828  24.6735
 20.7632  29.282
 20.8438  25.1581
 20.9243  24.2443
 21.0048  24.0726
 21.0853  24.082
 21.1658  23.9184
 21.2462  23.9533
 21.3268  24.0779
 21.4073  23.875
 21.4878  24.0803
 21.5683  24.0044
 21.6487  24.2113
 21.7293  24.4575
 21.8098  24.2719
 21.8903  24.2096
 21.9708  24.3155
 22.0512  24.3078
 22.1318  24.3117
 22.2123  24.3809
 22.2928  24.6675
 22.3733  24.7209
 22.4538  24.7545
 22.5343  24.811
 22.6148  24.9827
 22.6953  25.1656
 22.7758  25.4715
 22.8563  25.6228
 22.9367  26.0576
 22.9943  26.3495