Folder: scimap-tests/test-data-xrd/xrd-map-34-ID-E (part 20)

File: Data_0082.chi
F:\20151113_APS_34IDE\\Brian\Particle1\OCV\Data_0082.tif
2-Theta Angle (Degrees)
Intensity
       2000
 0.07475  0.0000000E+00
 0.15525  0.0000000E+00
 0.23575  0.0000000E+00
 0.31625  0.0000000E+00
 0.39675  0.0000000E+00
 0.47725  0.0000000E+00
 0.55775  0.0000000E+00
 0.63825  0.0000000E+00
 0.71875  0.0000000E+00
 0.79925  0.0000000E+00
 0.87975  0.0000000E+00
 0.96025  0.0000000E+00
 1.04075  0.0000000E+00
 1.12125  0.0000000E+00
 1.20175  0.0000000E+00
 1.28225  0.0000000E+00
 1.36275  0.0000000E+00
 1.44325  0.0000000E+00
 1.52375  0.0000000E+00
 1.60425  0.0000000E+00
 1.68475  0.0000000E+00
 1.76525  0.0000000E+00
 1.84575  0.0000000E+00
 1.92625  0.0000000E+00
 2.00675  0.0000000E+00
 2.08725  0.0000000E+00
 2.16775  0.0000000E+00
 2.24825  0.0000000E+00
 2.32875  0.0000000E+00
 2.40925  0.0000000E+00
 2.48975  0.0000000E+00
 2.57025  0.0000000E+00
 2.65075  0.0000000E+00
 2.73125  0.0000000E+00
 2.81175  0.0000000E+00
 2.89225  35.5846
 2.97275  35.629
 3.05325  35.9987
 3.13375  35.4143
 3.21425  35.8436
 3.29475  34.3632
 3.37525  34.6202
 3.45575  34.7009
 3.53625  33.1307
 3.61675  33.1624
 3.69725  33.2598
 3.77775  32.8963
 3.85825  32.918
 3.93875  32.6258
 4.01925  32.687
 4.09975  32.0931
 4.18025  32.505
 4.26075  32.2012
 4.34125  32.1492
 4.42175  32.2409
 4.50225  32.5475
 4.58275  32.5088
 4.66325  32.3082
 4.74375  32.6896
 4.82425  32.4224
 4.90475  33.1958
 4.98525  33.0688
 5.06575  33.4078
 5.14625  33.7282
 5.22675  33.7916
 5.30725  34.2655
 5.38775  34.4359
 5.46825  34.655
 5.54875  35.0355
 5.62925  35.3091
 5.70975  35.4545
 5.79025  35.7889
 5.87075  36.8215
 5.95125  58.8702
 6.03175  48.1248
 6.11225  37.5279
 6.19275  37.2708
 6.27325  37.7398
 6.35375  37.9229
 6.43425  38.1978
 6.51475  38.7767
 6.59525  39.3563
 6.67575  40.1865
 6.75625  40.8091
 6.83675  41.2905
 6.91725  41.4947
 6.99775  42.231
 7.07825  42.4191
 7.15875  42.68
 7.23925  43.1026
 7.31975  43.2662
 7.40025  43.6708
 7.48075  43.9462
 7.56125  44.0191
 7.64175  44.1049
 7.72225  44.1242
 7.80275  44.0243
 7.88325  43.5474
 7.96375  43.232
 8.04425  43.0223
 8.12475  42.2985
 8.20525  41.5827
 8.28575  40.7609
 8.36625  39.7
 8.44675  38.5023
 8.52725  37.4504
 8.60775  36.1415
 8.68825  35.0507
 8.76875  33.9408
 8.84925  32.5779
 8.92975  31.6032
 9.01025  30.4456
 9.09075  29.5775
 9.17125  28.7639
 9.25175  27.8701
 9.33225  27.4513
 9.41275  26.9763
 9.49325  26.455
 9.57375  25.9956
 9.65425  25.5416
 9.73475  25.3434
 9.81525  24.9516
 9.89575  24.5739
 9.97625  24.3883
 10.0567  24.2145
 10.1373  23.9314
 10.2178  23.7773
 10.2982  23.6893
 10.3788  23.503
 10.4593  23.3017
 10.5397  23.1526
 10.6203  23.2364
 10.7007  22.9689
 10.7813  22.9547
 10.8618  22.8178
 10.9422  22.585
 11.0228  22.6938
 11.1033  22.6609
 11.1837  22.5065
 11.2643  22.5762
 11.3447  22.6455
 11.4253  22.879
 11.5058  23.1644
 11.5862  31.9644
 11.6668  25.0946
 11.7473  22.71
 11.8277  22.6845
 11.9083  22.7992
 11.9887  24.4059
 12.0693  24.8916
 12.1498  24.5329
 12.2302  22.7687
 12.3108  22.7156
 12.3913  22.6347
 12.4718  22.5917
 12.5523  22.792
 12.6328  22.9883
 12.7133  22.9594
 12.7938  23.2128
 12.8742  23.376
 12.9548  23.7033
 13.0353  24.2314
 13.1158  24.8325
 13.1963  25.6486
 13.2768  26.6015
 13.3573  27.6906
 13.4378  28.4548
 13.5183  29.2948
 13.5988  29.9282
 13.6793  29.9308
 13.7598  29.906
 13.8403  30.4968
 13.9208  48.7869
 14.0013  39.7792
 14.0818  28.5303
 14.1623  27.4568
 14.2428  26.8046
 14.3233  26.4176
 14.4038  26.1276
 14.4843  25.6929
 14.5648  25.5852
 14.6453  25.4499
 14.7258  25.1951
 14.8063  25.0541
 14.8868  25.039
 14.9673  24.8696
 15.0478  24.9794
 15.1283  25.5828
 15.2088  29.6219
 15.2892  24.989
 15.3698  24.6763
 15.4503  24.5014
 15.5308  24.5819
 15.6113  24.4786
 15.6918  24.5564
 15.7723  24.6036
 15.8528  24.6859
 15.9332  24.8109
 16.0138  24.8004
 16.0943  24.7017
 16.1748  24.9468
 16.2553  26.1195
 16.3358  25.0797
 16.4163  24.744
 16.4967  24.6176
 16.5773  24.6106
 16.6578  24.5997
 16.7383  24.4148
 16.8188  24.557
 16.8992  24.4607
 16.9798  24.3742
 17.0603  24.2761
 17.1408  24.1841
 17.2213  24.2857
 17.3017  24.1722
 17.3823  24.0837
 17.4628  24.0293
 17.5433  24.1064
 17.6238  23.9967
 17.7042  23.97
 17.7847  23.9418
 17.8653  23.9453
 17.9458  24.1677
 18.0263  25.6272
 18.1068  27.9793
 18.1872  24.829
 18.2678  23.8354
 18.3483  23.6932
 18.4288  23.7572
 18.5093  23.6492
 18.5897  23.7476
 18.6703  23.6603
 18.7508  23.5575
 18.8313  23.6433
 18.9118  23.6256
 18.9922  23.7598
 19.0727  23.7152
 19.1533  23.7858
 19.2338  23.641
 19.3143  23.5609
 19.3948  23.8199
 19.4752  23.706
 19.5558  23.8062
 19.6363  24.3196
 19.7168  27.3775
 19.7973  25.6265
 19.8777  28.0751
 19.9582  24.1525
 20.0388  23.8521
 20.1193  23.8894
 20.1998  23.8844
 20.2803  23.8006
 20.3607  23.8516
 20.4413  23.8686
 20.5218  23.803
 20.6023  23.9976
 20.6828  24.4427
 20.7632  26.3041
 20.8438  24.4399
 20.9243  24.1545
 21.0048  23.9519
 21.0853  24.0177
 21.1658  23.9352
 21.2462  24.028
 21.3268  23.9644
 21.4073  24.0048
 21.4878  24.1131
 21.5683  24.0935
 21.6487  24.1539
 21.7293  24.2004
 21.8098  24.202
 21.8903  24.2978
 21.9708  24.3446
 22.0512  24.4045
 22.1318  24.4444
 22.2123  24.2601
 22.2928  24.59
 22.3733  24.6598
 22.4538  24.7545
 22.5343  24.8017
 22.6148  24.9374
 22.6953  25.2239
 22.7758  25.3602
 22.8563  25.72
 22.9367  26.0027
 22.9943  26.5034

File: Data_0083.chi
F:\20151113_APS_34IDE\\Brian\Particle1\OCV\Data_0083.tif
2-Theta Angle (Degrees)
Intensity
       2000
 0.07475  0.0000000E+00
 0.15525  0.0000000E+00
 0.23575  0.0000000E+00
 0.31625  0.0000000E+00
 0.39675  0.0000000E+00
 0.47725  0.0000000E+00
 0.55775  0.0000000E+00
 0.63825  0.0000000E+00
 0.71875  0.0000000E+00
 0.79925  0.0000000E+00
 0.87975  0.0000000E+00
 0.96025  0.0000000E+00
 1.04075  0.0000000E+00
 1.12125  0.0000000E+00
 1.20175  0.0000000E+00
 1.28225  0.0000000E+00
 1.36275  0.0000000E+00
 1.44325  0.0000000E+00
 1.52375  0.0000000E+00
 1.60425  0.0000000E+00
 1.68475  0.0000000E+00
 1.76525  0.0000000E+00
 1.84575  0.0000000E+00
 1.92625  0.0000000E+00
 2.00675  0.0000000E+00
 2.08725  0.0000000E+00
 2.16775  0.0000000E+00
 2.24825  0.0000000E+00
 2.32875  0.0000000E+00
 2.40925  0.0000000E+00
 2.48975  0.0000000E+00
 2.57025  0.0000000E+00
 2.65075  0.0000000E+00
 2.73125  0.0000000E+00
 2.81175  0.0000000E+00
 2.89225  32.7742
 2.97275  36.4611
 3.05325  35.5759
 3.13375  35.8139
 3.21425  34.4728
 3.29475  34.3608
 3.37525  35.1087
 3.45575  33.8433
 3.53625  34.2977
 3.61675  33.1157
 3.69725  33.1615
 3.77775  32.4888
 3.85825  32.6357
 3.93875  32.3608
 4.01925  32.5485
 4.09975  32.0869
 4.18025  31.9886
 4.26075  32.1348
 4.34125  32.3704
 4.42175  32.6931
 4.50225  32.6737
 4.58275  32.3517
 4.66325  33.3384
 4.74375  32.6351
 4.82425  32.7999
 4.90475  32.6754
 4.98525  32.9829
 5.06575  33.5479
 5.14625  33.6889
 5.22675  33.9518
 5.30725  34.0884
 5.38775  34.5663
 5.46825  34.624
 5.54875  34.8477
 5.62925  35.2215
 5.70975  35.5379
 5.79025  35.7811
 5.87075  36.3866
 5.95125  51.1736
 6.03175  48.8241
 6.11225  37.3621
 6.19275  37.1551
 6.27325  37.1799
 6.35375  38.0146
 6.43425  38.3742
 6.51475  39.2089
 6.59525  39.3317
 6.67575  39.8363
 6.75625  40.5737
 6.83675  41.4938
 6.91725  42.0664
 6.99775  42.3186
 7.07825  42.485
 7.15875  43.0351
 7.23925  43.4295
 7.31975  43.6281
 7.40025  43.8224
 7.48075  44.2803
 7.56125  44.3714
 7.64175  44.448
 7.72225  44.2304
 7.80275  43.9422
 7.88325  44.029
 7.96375  43.532
 8.04425  43.2524
 8.12475  42.4383
 8.20525  41.7184
 8.28575  40.9512
 8.36625  39.8333
 8.44675  38.7116
 8.52725  37.7224
 8.60775  36.2505
 8.68825  35.0952
 8.76875  34.0237
 8.84925  32.8979
 8.92975  31.6353
 9.01025  30.5536
 9.09075  29.7228
 9.17125  29.0445
 9.25175  28.423
 9.33225  27.5906
 9.41275  26.9859
 9.49325  26.6485
 9.57375  26.0346
 9.65425  25.5888
 9.73475  25.399
 9.81525  25.0405
 9.89575  24.728
 9.97625  24.4967
 10.0567  24.3878
 10.1373  23.9915
 10.2178  23.7709
 10.2982  23.6554
 10.3788  23.5969
 10.4593  23.3282
 10.5397  23.2786
 10.6203  23.6591
 10.7007  23.492
 10.7813  23.2415
 10.8618  22.968
 10.9422  22.8669
 11.0228  22.8994
 11.1033  22.7486
 11.1837  22.6098
 11.2643  22.5463
 11.3447  22.7097
 11.4253  23.0131
 11.5058  23.5461
 11.5862  32.9806
 11.6668  24.1937
 11.7473  22.9239
 11.8277  22.8408
 11.9083  23.1204
 11.9887  26.6494
 12.0693  27.7587
 12.1498  24.604
 12.2302  22.8641
 12.3108  22.7917
 12.3913  22.7125
 12.4718  22.7093
 12.5523  23.0056
 12.6328  23.1596
 12.7133  23.137
 12.7938  23.3742
 12.8742  23.6335
 12.9548  23.9075
 13.0353  24.1533
 13.1158  24.9504
 13.1963  25.8907
 13.2768  26.7807
 13.3573  27.6928
 13.4378  28.6613
 13.5183  29.4871
 13.5988  29.9409
 13.6793  29.9807
 13.7598  29.7972
 13.8403  30.1994
 13.9208  42.4047
 14.0013  42.2563
 14.0818  28.4594
 14.1623  27.6565
 14.2428  26.7727
 14.3233  26.4456
 14.4038  26.0379
 14.4843  25.8799
 14.5648  25.799
 14.6453  25.532
 14.7258  25.3874
 14.8063  25.2398
 14.8868  25.092
 14.9673  25.1281
 15.0478  25.0218
 15.1283  25.6977
 15.2088  29.0505
 15.2892  25.1503
 15.3698  24.7276
 15.4503  24.6312
 15.5308  24.7445
 15.6113  24.6576
 15.6918  24.6468
 15.7723  24.806
 15.8528  24.7208
 15.9332  24.7255
 16.0138  24.7526
 16.0943  24.9539
 16.1748  25.0558
 16.2553  25.9511
 16.3358  25.0584
 16.4163  24.9566
 16.4967  24.799
 16.5773  24.7611
 16.6578  24.649
 16.7383  24.6311
 16.8188  24.5018
 16.8992  24.6143
 16.9798  24.4918
 17.0603  24.2567
 17.1408  24.3248
 17.2213  24.3405
 17.3017  24.36
 17.3823  24.1509
 17.4628  24.0753
 17.5433  24.0979
 17.6238  24.1118
 17.7042  23.9629
 17.7847  23.9921
 17.8653  23.9805
 17.9458  24.3177
 18.0263  25.555
 18.1068  35.8432
 18.1872  27.1921
 18.2678  24.1973
 18.3483  23.9429
 18.4288  23.9065
 18.5093  23.7257
 18.5897  23.7899
 18.6703  23.6559
 18.7508  23.6979
 18.8313  23.5962
 18.9118  23.9144
 18.9922  23.6128
 19.0727  23.8052
 19.1533  23.7869
 19.2338  23.6314
 19.3143  23.9126
 19.3948  23.9641
 19.4752  23.8996
 19.5558  24.0579
 19.6363  24.8616
 19.7168  29.9107
 19.7973  29.2855
 19.8777  34.9643
 19.9582  24.877
 20.0388  24.2423
 20.1193  24.0898
 20.1998  24.0531
 20.2803  23.8603
 20.3607  23.9635
 20.4413  23.8982
 20.5218  23.8386
 20.6023  24.2344
 20.6828  24.5598
 20.7632  28.3
 20.8438  25.1473
 20.9243  24.4275
 21.0048  24.1732
 21.0853  24.0166
 21.1658  24.136
 21.2462  24.0839
 21.3268  24.14
 21.4073  24.1386
 21.4878  24.0868
 21.5683  24.1209
 21.6487  24.2432
 21.7293  24.1846
 21.8098  24.2971
 21.8903  24.3337
 21.9708  24.4775
 22.0512  24.387
 22.1318  24.7117
 22.2123  24.5962
 22.2928  24.4536
 22.3733  24.6029
 22.4538  24.7779
 22.5343  24.9114
 22.6148  25.0555
 22.6953  25.3034
 22.7758  25.3898
 22.8563  25.746
 22.9367  26.1933
 22.9943  26.5831

File: Data_0084.chi
F:\20151113_APS_34IDE\\Brian\Particle1\OCV\Data_0084.tif
2-Theta Angle (Degrees)
Intensity
       2000
 0.07475  0.0000000E+00
 0.15525  0.0000000E+00
 0.23575  0.0000000E+00
 0.31625  0.0000000E+00
 0.39675  0.0000000E+00
 0.47725  0.0000000E+00
 0.55775  0.0000000E+00
 0.63825  0.0000000E+00
 0.71875  0.0000000E+00
 0.79925  0.0000000E+00
 0.87975  0.0000000E+00
 0.96025  0.0000000E+00
 1.04075  0.0000000E+00
 1.12125  0.0000000E+00
 1.20175  0.0000000E+00
 1.28225  0.0000000E+00
 1.36275  0.0000000E+00
 1.44325  0.0000000E+00
 1.52375  0.0000000E+00
 1.60425  0.0000000E+00
 1.68475  0.0000000E+00
 1.76525  0.0000000E+00
 1.84575  0.0000000E+00
 1.92625  0.0000000E+00
 2.00675  0.0000000E+00
 2.08725  0.0000000E+00
 2.16775  0.0000000E+00
 2.24825  0.0000000E+00
 2.32875  0.0000000E+00
 2.40925  0.0000000E+00
 2.48975  0.0000000E+00
 2.57025  0.0000000E+00
 2.65075  0.0000000E+00
 2.73125  0.0000000E+00
 2.81175  0.0000000E+00
 2.89225  35.2502
 2.97275  35.0994
 3.05325  36.1518
 3.13375  35.5315
 3.21425  36.6125
 3.29475  36.5187
 3.37525  35.7467
 3.45575  34.6506
 3.53625  33.3217
 3.61675  33.8466
 3.69725  33.4184
 3.77775  33.5789
 3.85825  33.0889
 3.93875  32.4723
 4.01925  33.0797
 4.09975  32.2431
 4.18025  32.5418
 4.26075  32.7445
 4.34125  32.786
 4.42175  32.6013
 4.50225  32.666
 4.58275  32.7259
 4.66325  32.8951
 4.74375  33.0692
 4.82425  32.7749
 4.90475  32.8229
 4.98525  32.8997
 5.06575  33.2832
 5.14625  33.7586
 5.22675  34.2035
 5.30725  34.2578
 5.38775  34.3306
 5.46825  34.9497
 5.54875  35.3743
 5.62925  35.286
 5.70975  36.1385
 5.79025  36.1129
 5.87075  36.8918
 5.95125  45.244
 6.03175  44.5447
 6.11225  37.3152
 6.19275  37.1463
 6.27325  37.6912
 6.35375  38.1208
 6.43425  38.7312
 6.51475  39.0908
 6.59525  39.7808
 6.67575  40.3328
 6.75625  40.7507
 6.83675  41.2434
 6.91725  41.9162
 6.99775  42.3843
 7.07825  43.0215
 7.15875  43.2827
 7.23925  43.9936
 7.31975  44.1504
 7.40025  44.1028
 7.48075  44.3448
 7.56125  44.5422
 7.64175  44.3642
 7.72225  44.2263
 7.80275  44.1369
 7.88325  44.0405
 7.96375  43.592
 8.04425  43.3201
 8.12475  42.6304
 8.20525  41.7228
 8.28575  41.0135
 8.36625  39.96
 8.44675  38.8951
 8.52725  37.6231
 8.60775  36.317
 8.68825  35.2269
 8.76875  33.8872
 8.84925  33.047
 8.92975  31.8156
 9.01025  30.7454
 9.09075  29.916
 9.17125  29.0734
 9.25175  28.2859
 9.33225  27.4229
 9.41275  27.0884
 9.49325  26.7611
 9.57375  26.0017
 9.65425  25.7046
 9.73475  25.3802
 9.81525  24.9789
 9.89575  24.6951
 9.97625  24.4852
 10.0567  24.1623
 10.1373  24.0076
 10.2178  24.0217
 10.2982  23.7024
 10.3788  23.6413
 10.4593  23.2897
 10.5397  23.2451
 10.6203  23.1336
 10.7007  23.1095
 10.7813  23.0718
 10.8618  22.936
 10.9422  22.8267
 11.0228  22.6056
 11.1033  22.7701
 11.1837  22.7159
 11.2643  22.6622
 11.3447  22.5864
 11.4253  23.1295
 11.5058  23.4327
 11.5862  31.2775
 11.6668  24.4547
 11.7473  22.7317
 11.8277  22.6921
 11.9083  22.7419
 11.9887  23.9576
 12.0693  25.8741
 12.1498  23.9478
 12.2302  22.6498
 12.3108  22.7043
 12.3913  22.7368
 12.4718  22.7445
 12.5523  22.8956
 12.6328  22.9326
 12.7133  23.0665
 12.7938  23.1763
 12.8742  23.4868
 12.9548  23.7977
 13.0353  24.3457
 13.1158  25.0947
 13.1963  25.8956
 13.2768  26.8548
 13.3573  27.8022
 13.4378  28.6252
 13.5183  29.5369
 13.5988  29.9943
 13.6793  30.1393
 13.7598  30.0911
 13.8403  31.1122
 13.9208  49.6897
 14.0013  57.7841
 14.0818  29.3762
 14.1623  27.7961
 14.2428  26.9788
 14.3233  26.5633
 14.4038  26.0326
 14.4843  25.838
 14.5648  25.8074
 14.6453  25.5387
 14.7258  25.2862
 14.8063  25.1342
 14.8868  25.0369
 14.9673  24.9078
 15.0478  24.9459
 15.1283  25.3912
 15.2088  27.0709
 15.2892  25.0047
 15.3698  24.7765
 15.4503  24.6593
 15.5308  24.6108
 15.6113  24.5611
 15.6918  24.7079
 15.7723  24.742
 15.8528  24.7443
 15.9332  24.7781
 16.0138  24.766
 16.0943  24.8912
 16.1748  24.993
 16.2553  25.7442
 16.3358  25.2239
 16.4163  24.7056
 16.4967  24.7307
 16.5773  24.7121
 16.6578  24.6558
 16.7383  24.6431
 16.8188  24.6713
 16.8992  24.5925
 16.9798  24.4125
 17.0603  24.3255
 17.1408  24.2515
 17.2213  24.2061
 17.3017  24.1406
 17.3823  24.196
 17.4628  24.0858
 17.5433  23.9634
 17.6238  24.0185
 17.7042  24.0214
 17.7847  23.9496
 17.8653  24.0016
 17.9458  23.9339
 18.0263  24.607
 18.1068  26.7079
 18.1872  24.4241
 18.2678  23.8262
 18.3483  23.8085
 18.4288  23.6582
 18.5093  23.7313
 18.5897  23.6361
 18.6703  23.695
 18.7508  23.4966
 18.8313  23.5639
 18.9118  23.667
 18.9922  23.5836
 19.0727  23.7705
 19.1533  23.7115
 19.2338  23.7828
 19.3143  24.0447
 19.3948  23.9543
 19.4752  23.8808
 19.5558  24.2049
 19.6363  24.9767
 19.7168  28.7488
 19.7973  31.3771
 19.8777  36.0182
 19.9582  25.1454
 20.0388  24.4561
 20.1193  24.157
 20.1998  24.0289
 20.2803  23.9018
 20.3607  23.8208
 20.4413  23.9964
 20.5218  23.8801
 20.6023  24.1663
 20.6828  25.093
 20.7632  29.3024
 20.8438  24.8375
 20.9243  24.2029
 21.0048  24.2202
 21.0853  24.1139
 21.1658  24.0972
 21.2462  23.9626
 21.3268  24.0621
 21.4073  24.1533
 21.4878  24.106
 21.5683  24.1355
 21.6487  24.2095
 21.7293  24.2086
 21.8098  24.3275
 21.8903  24.3881
 21.9708  24.4172
 22.0512  24.4343
 22.1318  24.6531
 22.2123  24.4941
 22.2928  24.5661
 22.3733  24.7559
 22.4538  24.8453
 22.5343  25.0123
 22.6148  25.1701
 22.6953  25.1742
 22.7758  25.423
 22.8563  25.7466
 22.9367  26.1905
 22.9943  26.7424

File: Data_0085.chi
F:\20151113_APS_34IDE\\Brian\Particle1\OCV\Data_0085.tif
2-Theta Angle (Degrees)
Intensity
       2000
 0.07475  0.0000000E+00
 0.15525  0.0000000E+00
 0.23575  0.0000000E+00
 0.31625  0.0000000E+00
 0.39675  0.0000000E+00
 0.47725  0.0000000E+00
 0.55775  0.0000000E+00
 0.63825  0.0000000E+00
 0.71875  0.0000000E+00
 0.79925  0.0000000E+00
 0.87975  0.0000000E+00
 0.96025  0.0000000E+00
 1.04075  0.0000000E+00
 1.12125  0.0000000E+00
 1.20175  0.0000000E+00
 1.28225  0.0000000E+00
 1.36275  0.0000000E+00
 1.44325  0.0000000E+00
 1.52375  0.0000000E+00
 1.60425  0.0000000E+00
 1.68475  0.0000000E+00
 1.76525  0.0000000E+00
 1.84575  0.0000000E+00
 1.92625  0.0000000E+00
 2.00675  0.0000000E+00
 2.08725  0.0000000E+00
 2.16775  0.0000000E+00
 2.24825  0.0000000E+00
 2.32875  0.0000000E+00
 2.40925  0.0000000E+00
 2.48975  0.0000000E+00
 2.57025  0.0000000E+00
 2.65075  0.0000000E+00
 2.73125  0.0000000E+00
 2.81175  0.0000000E+00
 2.89225  35.6757
 2.97275  34.6954
 3.05325  35.3375
 3.13375  35.7352
 3.21425  35.7443
 3.29475  34.3678
 3.37525  34.8077
 3.45575  34.3253
 3.53625  34.0387
 3.61675  33.0018
 3.69725  32.9523
 3.77775  32.7485
 3.85825  33.2585
 3.93875  32.524
 4.01925  32.3099
 4.09975  32.6318
 4.18025  32.3345
 4.26075  32.1028
 4.34125  32.9539
 4.42175  32.8079
 4.50225  32.6997
 4.58275  32.8761
 4.66325  32.5732
 4.74375  32.4775
 4.82425  32.2164
 4.90475  32.9454
 4.98525  33.2426
 5.06575  33.2909
 5.14625  33.8641
 5.22675  34.0917
 5.30725  34.3136
 5.38775  34.842
 5.46825  34.9552
 5.54875  34.8317
 5.62925  35.438
 5.70975  35.9548
 5.79025  36.0067
 5.87075  36.4203
 5.95125  45.1358
 6.03175  47.1118
 6.11225  37.5231
 6.19275  37.1192
 6.27325  37.6758
 6.35375  38.0685
 6.43425  38.776
 6.51475  39.1203
 6.59525  39.5793
 6.67575  40.178
 6.75625  40.9056
 6.83675  41.7354
 6.91725  42.0275
 6.99775  42.4408
 7.07825  42.8498
 7.15875  43.4761
 7.23925  43.6911
 7.31975  44.0291
 7.40025  44.0888
 7.48075  44.4389
 7.56125  44.7268
 7.64175  44.5396
 7.72225  44.293
 7.80275  44.2675
 7.88325  44.0871
 7.96375  43.8672
 8.04425  43.1448
 8.12475  42.7178
 8.20525  42.0751
 8.28575  41.154
 8.36625  40.1561
 8.44675  38.9576
 8.52725  37.9582
 8.60775  36.4742
 8.68825  35.3496
 8.76875  33.8702
 8.84925  32.9991
 8.92975  32.0865
 9.01025  30.6965
 9.09075  30.2047
 9.17125  29.1558
 9.25175  28.3316
 9.33225  27.6514
 9.41275  27.1873
 9.49325  26.6497
 9.57375  25.8487
 9.65425  25.7226
 9.73475  25.5302
 9.81525  24.9945
 9.89575  24.885
 9.97625  24.5485
 10.0567  24.2755
 10.1373  24.0752
 10.2178  24.0021
 10.2982  23.8152
 10.3788  23.6605
 10.4593  23.3863
 10.5397  23.4015
 10.6203  23.174
 10.7007  23.0761
 10.7813  22.9098
 10.8618  22.963
 10.9422  22.8869
 11.0228  22.7013
 11.1033  22.5235
 11.1837  22.714
 11.2643  22.5281
 11.3447  22.7363
 11.4253  22.9955
 11.5058  24.0008
 11.5862  34.1529
 11.6668  24.2016
 11.7473  22.6859
 11.8277  22.755
 11.9083  22.7032
 11.9887  23.072
 12.0693  24.3384
 12.1498  23.7607
 12.2302  22.828
 12.3108  22.7735
 12.3913  22.6325
 12.4718  22.7181
 12.5523  22.9623
 12.6328  22.9545
 12.7133  23.0132
 12.7938  23.1012
 12.8742  23.4485
 12.9548  23.8806
 13.0353  24.2631
 13.1158  24.9361
 13.1963  25.8881
 13.2768  27.0078
 13.3573  27.979
 13.4378  28.8431
 13.5183  29.4214
 13.5988  29.9752
 13.6793  30.001
 13.7598  29.894
 13.8403  30.219
 13.9208  40.9605
 14.0013  49.209
 14.0818  28.8147
 14.1623  27.5549
 14.2428  26.797
 14.3233  26.313
 14.4038  26.2364
 14.4843  25.7747
 14.5648  25.6411
 14.6453  25.5564
 14.7258  25.336
 14.8063  25.0993
 14.8868  25.1652
 14.9673  25.0628
 15.0478  25.0369
 15.1283  26.3996
 15.2088  34.0133
 15.2892  25.2523
 15.3698  24.8338
 15.4503  24.7779
 15.5308  24.7538
 15.6113  24.6443
 15.6918  24.6985
 15.7723  24.7325
 15.8528  24.7397
 15.9332  24.6287
 16.0138  24.7647
 16.0943  24.9527
 16.1748  24.9814
 16.2553  25.3897
 16.3358  25.0098
 16.4163  24.7592
 16.4967  24.8962
 16.5773  24.7822
 16.6578  24.672
 16.7383  24.52
 16.8188  24.4617
 16.8992  24.4917
 16.9798  24.6184
 17.0603  24.2679
 17.1408  24.2566
 17.2213  24.128
 17.3017  24.1198
 17.3823  24.1774
 17.4628  24.0061
 17.5433  23.9197
 17.6238  23.9503
 17.7042  23.8867
 17.7847  24.0705
 17.8653  23.8615
 17.9458  24.0203
 18.0263  25.564
 18.1068  25.4655
 18.1872  24.2833
 18.2678  23.8417
 18.3483  23.7855
 18.4288  23.6616
 18.5093  23.6785
 18.5897  23.6412
 18.6703  23.606
 18.7508  23.6902
 18.8313  23.6529
 18.9118  23.6211
 18.9922  23.5416
 19.0727  23.6697
 19.1533  23.7564
 19.2338  23.8626
 19.3143  23.9684
 19.3948  23.7434
 19.4752  23.8522
 19.5558  24.1303
 19.6363  25.1419
 19.7168  29.9429
 19.7973  29.5318
 19.8777  38.7139
 19.9582  25.2814
 20.0388  24.2823
 20.1193  24.0625
 20.1998  23.98
 20.2803  23.8564
 20.3607  23.835
 20.4413  23.8856
 20.5218  23.8477
 20.6023  24.07
 20.6828  24.4346
 20.7632  26.7305
 20.8438  24.374
 20.9243  24.26
 21.0048  24.1466
 21.0853  23.9374
 21.1658  24.0364
 21.2462  24.0129
 21.3268  23.8804
 21.4073  24.0779
 21.4878  24.0567
 21.5683  23.9583
 21.6487  24.2313
 21.7293  24.2008
 21.8098  24.211
 21.8903  24.1813
 21.9708  24.3769
 22.0512  24.317
 22.1318  24.465
 22.2123  24.4421
 22.2928  24.546
 22.3733  24.5198
 22.4538  24.8542
 22.5343  24.9198
 22.6148  25.0049
 22.6953  25.2889
 22.7758  25.3899
 22.8563  25.5517
 22.9367  26.1549
 22.9943  26.7532