Folder: scimap-tests/test-data-xrd/xrd-map-34-ID-E

File: Data_0002.chi
F:\20151113_APS_34IDE\\Brian\Particle1\OCV\Data_0002.tif
2-Theta Angle (Degrees)
Intensity
       2000
 0.07475  0.0000000E+00
 0.15525  0.0000000E+00
 0.23575  0.0000000E+00
 0.31625  0.0000000E+00
 0.39675  0.0000000E+00
 0.47725  0.0000000E+00
 0.55775  0.0000000E+00
 0.63825  0.0000000E+00
 0.71875  0.0000000E+00
 0.79925  0.0000000E+00
 0.87975  0.0000000E+00
 0.96025  0.0000000E+00
 1.04075  0.0000000E+00
 1.12125  0.0000000E+00
 1.20175  0.0000000E+00
 1.28225  0.0000000E+00
 1.36275  0.0000000E+00
 1.44325  0.0000000E+00
 1.52375  0.0000000E+00
 1.60425  0.0000000E+00
 1.68475  0.0000000E+00
 1.76525  0.0000000E+00
 1.84575  0.0000000E+00
 1.92625  0.0000000E+00
 2.00675  0.0000000E+00
 2.08725  0.0000000E+00
 2.16775  0.0000000E+00
 2.24825  0.0000000E+00
 2.32875  0.0000000E+00
 2.40925  0.0000000E+00
 2.48975  0.0000000E+00
 2.57025  0.0000000E+00
 2.65075  0.0000000E+00
 2.73125  0.0000000E+00
 2.81175  0.0000000E+00
 2.89225  34.961
 2.97275  34.3955
 3.05325  34.5974
 3.13375  35.1527
 3.21425  34.2336
 3.29475  33.9692
 3.37525  34.2641
 3.45575  34.425
 3.53625  33.7381
 3.61675  33.6936
 3.69725  33.4046
 3.77775  32.8748
 3.85825  32.5887
 3.93875  32.4306
 4.01925  32.8006
 4.09975  32.5302
 4.18025  32.3054
 4.26075  32.3632
 4.34125  32.457
 4.42175  32.3469
 4.50225  32.491
 4.58275  32.6506
 4.66325  32.7635
 4.74375  32.9251
 4.82425  32.5993
 4.90475  32.9796
 4.98525  33.0844
 5.06575  33.2288
 5.14625  33.6061
 5.22675  33.9347
 5.30725  34.2196
 5.38775  34.4
 5.46825  34.5802
 5.54875  34.9849
 5.62925  34.9834
 5.70975  35.3741
 5.79025  35.5214
 5.87075  35.8706
 5.95125  37.9558
 6.03175  37.7008
 6.11225  36.8864
 6.19275  37.0034
 6.27325  37.4072
 6.35375  38.2279
 6.43425  38.8263
 6.51475  39.2916
 6.59525  39.9483
 6.67575  40.2816
 6.75625  40.8896
 6.83675  41.4421
 6.91725  42.4215
 6.99775  42.4074
 7.07825  42.9805
 7.15875  43.3447
 7.23925  43.7791
 7.31975  44.4168
 7.40025  44.3427
 7.48075  44.7294
 7.56125  44.766
 7.64175  44.5859
 7.72225  45.0253
 7.80275  44.9423
 7.88325  44.7112
 7.96375  44.506
 8.04425  43.8337
 8.12475  43.5285
 8.20525  42.4849
 8.28575  41.8241
 8.36625  40.7962
 8.44675  39.4728
 8.52725  38.5335
 8.60775  36.8515
 8.68825  36.0908
 8.76875  34.6885
 8.84925  33.4969
 8.92975  32.3936
 9.01025  31.3333
 9.09075  30.6496
 9.17125  29.5831
 9.25175  28.7519
 9.33225  28.1503
 9.41275  27.6213
 9.49325  27.2845
 9.57375  26.4074
 9.65425  26.124
 9.73475  25.8182
 9.81525  25.6049
 9.89575  25.0893
 9.97625  24.7921
 10.0567  24.5204
 10.1373  24.4234
 10.2178  24.3179
 10.2982  24.0253
 10.3788  23.9113
 10.4593  23.6979
 10.5397  23.6752
 10.6203  23.3124
 10.7007  23.2431
 10.7813  23.1674
 10.8618  23.0919
 10.9422  22.8449
 11.0228  22.8681
 11.1033  22.794
 11.1837  22.8441
 11.2643  22.6175
 11.3447  22.5013
 11.4253  23.0123
 11.5058  22.9481
 11.5862  25.283
 11.6668  22.8536
 11.7473  22.7343
 11.8277  22.4125
 11.9083  22.521
 11.9887  22.9525
 12.0693  22.9397
 12.1498  22.8787
 12.2302  22.7265
 12.3108  22.7275
 12.3913  22.6935
 12.4718  22.8268
 12.5523  22.7455
 12.6328  22.991
 12.7133  23.102
 12.7938  23.3918
 12.8742  23.5825
 12.9548  23.93
 13.0353  24.2025
 13.1158  25.1247
 13.1963  25.8388
 13.2768  26.8858
 13.3573  27.9772
 13.4378  28.8891
 13.5183  29.6465
 13.5988  29.9651
 13.6793  29.8429
 13.7598  29.5164
 13.8403  29.242
 13.9208  30.958
 14.0013  29.673
 14.0818  27.6381
 14.1623  27.064
 14.2428  26.7515
 14.3233  26.2979
 14.4038  26.0338
 14.4843  25.7815
 14.5648  25.6999
 14.6453  25.4655
 14.7258  25.3258
 14.8063  25.2479
 14.8868  24.9556
 14.9673  24.9942
 15.0478  24.9122
 15.1283  24.9172
 15.2088  25.2902
 15.2892  24.7063
 15.3698  24.7944
 15.4503  24.7225
 15.5308  24.7219
 15.6113  24.6308
 15.6918  24.8673
 15.7723  24.9392
 15.8528  24.7789
 15.9332  24.7954
 16.0138  24.9074
 16.0943  25.0412
 16.1748  25.381
 16.2553  29.0298
 16.3358  25.3746
 16.4163  25.0806
 16.4967  24.7981
 16.5773  24.8229
 16.6578  24.8022
 16.7383  24.7407
 16.8188  24.5467
 16.8992  24.5151
 16.9798  24.4226
 17.0603  24.3304
 17.1408  24.5348
 17.2213  24.3161
 17.3017  24.2388
 17.3823  24.19
 17.4628  24.0443
 17.5433  24.0692
 17.6238  24.0558
 17.7042  23.9847
 17.7847  24.9665
 17.8653  23.9134
 17.9458  23.8235
 18.0263  23.917
 18.1068  24.2326
 18.1872  23.7928
 18.2678  23.7428
 18.3483  23.648
 18.4288  23.8169
 18.5093  23.651
 18.5897  23.7195
 18.6703  23.6611
 18.7508  23.6279
 18.8313  23.4963
 18.9118  23.6327
 18.9922  23.6801
 19.0727  23.6816
 19.1533  23.702
 19.2338  23.6173
 19.3143  25.0647
 19.3948  23.7952
 19.4752  23.7229
 19.5558  23.7422
 19.6363  23.7552
 19.7168  24.3648
 19.7973  24.0215
 19.8777  24.5905
 19.9582  23.7919
 20.0388  23.7883
 20.1193  23.8267
 20.1998  23.8761
 20.2803  23.8167
 20.3607  23.7916
 20.4413  23.9481
 20.5218  23.8631
 20.6023  23.8836
 20.6828  24.0228
 20.7632  24.4264
 20.8438  24.0388
 20.9243  24.0984
 21.0048  24.0094
 21.0853  24.0104
 21.1658  23.9664
 21.2462  23.9888
 21.3268  23.9886
 21.4073  24.1769
 21.4878  24.0879
 21.5683  24.1693
 21.6487  24.2148
 21.7293  24.2371
 21.8098  24.2843
 21.8903  24.3189
 21.9708  24.3546
 22.0512  24.4835
 22.1318  24.4293
 22.2123  24.4252
 22.2928  24.5617
 22.3733  24.6791
 22.4538  24.7901
 22.5343  24.8658
 22.6148  24.9049
 22.6953  25.1924
 22.7758  25.3218
 22.8563  25.6043
 22.9367  26.0931
 22.9943  26.2395

File: Data_0003.chi
F:\20151113_APS_34IDE\\Brian\Particle1\OCV\Data_0003.tif
2-Theta Angle (Degrees)
Intensity
       2000
 0.07475  0.0000000E+00
 0.15525  0.0000000E+00
 0.23575  0.0000000E+00
 0.31625  0.0000000E+00
 0.39675  0.0000000E+00
 0.47725  0.0000000E+00
 0.55775  0.0000000E+00
 0.63825  0.0000000E+00
 0.71875  0.0000000E+00
 0.79925  0.0000000E+00
 0.87975  0.0000000E+00
 0.96025  0.0000000E+00
 1.04075  0.0000000E+00
 1.12125  0.0000000E+00
 1.20175  0.0000000E+00
 1.28225  0.0000000E+00
 1.36275  0.0000000E+00
 1.44325  0.0000000E+00
 1.52375  0.0000000E+00
 1.60425  0.0000000E+00
 1.68475  0.0000000E+00
 1.76525  0.0000000E+00
 1.84575  0.0000000E+00
 1.92625  0.0000000E+00
 2.00675  0.0000000E+00
 2.08725  0.0000000E+00
 2.16775  0.0000000E+00
 2.24825  0.0000000E+00
 2.32875  0.0000000E+00
 2.40925  0.0000000E+00
 2.48975  0.0000000E+00
 2.57025  0.0000000E+00
 2.65075  0.0000000E+00
 2.73125  0.0000000E+00
 2.81175  0.0000000E+00
 2.89225  36.0848
 2.97275  35.5834
 3.05325  36.1087
 3.13375  35.5316
 3.21425  35.3302
 3.29475  34.7685
 3.37525  34.3486
 3.45575  34.3549
 3.53625  34.107
 3.61675  33.9831
 3.69725  33.2403
 3.77775  33.1655
 3.85825  32.8529
 3.93875  32.5129
 4.01925  32.4099
 4.09975  32.6771
 4.18025  32.569
 4.26075  32.4222
 4.34125  32.3711
 4.42175  32.327
 4.50225  32.7165
 4.58275  32.7443
 4.66325  33.3661
 4.74375  32.4854
 4.82425  32.4334
 4.90475  32.733
 4.98525  33.2814
 5.06575  33.558
 5.14625  33.8494
 5.22675  34.1559
 5.30725  34.1207
 5.38775  34.723
 5.46825  34.9205
 5.54875  34.9262
 5.62925  35.2891
 5.70975  35.4217
 5.79025  36.1097
 5.87075  36.0241
 5.95125  38.8379
 6.03175  37.9615
 6.11225  37.1369
 6.19275  37.2461
 6.27325  37.8153
 6.35375  38.1572
 6.43425  39.0129
 6.51475  39.3245
 6.59525  39.9322
 6.67575  40.3942
 6.75625  41.1985
 6.83675  42.0298
 6.91725  42.563
 6.99775  42.4179
 7.07825  43.2355
 7.15875  43.7635
 7.23925  43.7513
 7.31975  44.3194
 7.40025  44.7096
 7.48075  44.5728
 7.56125  44.88
 7.64175  44.9978
 7.72225  45.139
 7.80275  44.8355
 7.88325  44.749
 7.96375  44.5267
 8.04425  44.1207
 8.12475  43.4024
 8.20525  43.0353
 8.28575  41.8009
 8.36625  40.7902
 8.44675  39.7169
 8.52725  38.3719
 8.60775  36.9101
 8.68825  36.0877
 8.76875  34.7722
 8.84925  33.685
 8.92975  32.5185
 9.01025  31.1974
 9.09075  30.4193
 9.17125  29.609
 9.25175  28.6864
 9.33225  28.2634
 9.41275  27.6658
 9.49325  27.2267
 9.57375  26.7535
 9.65425  26.1989
 9.73475  25.7883
 9.81525  25.4503
 9.89575  25.173
 9.97625  25.0535
 10.0567  24.7459
 10.1373  24.387
 10.2178  24.1966
 10.2982  24.126
 10.3788  23.8687
 10.4593  23.6505
 10.5397  23.6785
 10.6203  23.544
 10.7007  23.3489
 10.7813  23.2838
 10.8618  23.0838
 10.9422  23.1041
 11.0228  23.0699
 11.1033  22.994
 11.1837  22.9748
 11.2643  22.8037
 11.3447  22.7857
 11.4253  23.1316
 11.5058  23.1999
 11.5862  26.3432
 11.6668  23.2714
 11.7473  22.7696
 11.8277  22.7618
 11.9083  22.8034
 11.9887  23.2591
 12.0693  23.3773
 12.1498  23.2648
 12.2302  22.8496
 12.3108  22.909
 12.3913  22.9025
 12.4718  22.9057
 12.5523  23.0978
 12.6328  23.2251
 12.7133  23.601
 12.7938  23.3875
 12.8742  23.6277
 12.9548  24.1709
 13.0353  24.4571
 13.1158  25.2404
 13.1963  25.8858
 13.2768  26.9647
 13.3573  28.1772
 13.4378  28.9312
 13.5183  29.7083
 13.5988  30.2141
 13.6793  30.1266
 13.7598  29.6015
 13.8403  29.3862
 13.9208  30.8177
 14.0013  30.2307
 14.0818  27.9754
 14.1623  27.3552
 14.2428  26.9145
 14.3233  26.4298
 14.4038  26.3518
 14.4843  26.0214
 14.5648  25.8404
 14.6453  25.6157
 14.7258  25.562
 14.8063  25.3036
 14.8868  25.1672
 14.9673  25.1885
 15.0478  25.0862
 15.1283  25.2857
 15.2088  26.052
 15.2892  25.0288
 15.3698  24.723
 15.4503  24.8903
 15.5308  24.8468
 15.6113  24.887
 15.6918  24.912
 15.7723  24.827
 15.8528  24.8341
 15.9332  24.8375
 16.0138  24.9093
 16.0943  24.9971
 16.1748  25.2729
 16.2553  27.2326
 16.3358  25.3538
 16.4163  25.1066
 16.4967  24.9607
 16.5773  24.8097
 16.6578  24.7739
 16.7383  24.7971
 16.8188  24.8175
 16.8992  24.6467
 16.9798  24.7142
 17.0603  24.5745
 17.1408  24.5476
 17.2213  24.4846
 17.3017  24.3528
 17.3823  24.3145
 17.4628  24.2878
 17.5433  24.2701
 17.6238  24.2079
 17.7042  24.1284
 17.7847  24.0659
 17.8653  24.0644
 17.9458  24.0742
 18.0263  24.181
 18.1068  24.9087
 18.1872  25.0959
 18.2678  23.8943
 18.3483  23.9039
 18.4288  23.8454
 18.5093  23.8268
 18.5897  23.8443
 18.6703  23.7251
 18.7508  23.8244
 18.8313  23.6603
 18.9118  23.823
 18.9922  23.7164
 19.0727  23.8814
 19.1533  23.8054
 19.2338  23.7718
 19.3143  23.8745
 19.3948  23.9298
 19.4752  23.9621
 19.5558  24.01
 19.6363  24.1686
 19.7168  25.3548
 19.7973  24.6118
 19.8777  25.0626
 19.9582  24.1308
 20.0388  24.0027
 20.1193  24.0222
 20.1998  23.9728
 20.2803  23.96
 20.3607  23.9816
 20.4413  24.0316
 20.5218  23.8763
 20.6023  24.1121
 20.6828  24.2105
 20.7632  25.0246
 20.8438  24.3013
 20.9243  24.227
 21.0048  24.0104
 21.0853  24.2515
 21.1658  24.0795
 21.2462  24.0868
 21.3268  24.2235
 21.4073  24.3082
 21.4878  24.2357
 21.5683  24.2156
 21.6487  24.4228
 21.7293  24.3004
 21.8098  24.3726
 21.8903  24.4315
 21.9708  24.57
 22.0512  24.5188
 22.1318  24.6253
 22.2123  24.668
 22.2928  24.6508
 22.3733  24.7146
 22.4538  24.8379
 22.5343  24.955
 22.6148  25.0767
 22.6953  25.3718
 22.7758  25.5483
 22.8563  25.7263
 22.9367  26.2006
 22.9943  26.52

File: Data_0004.chi
F:\20151113_APS_34IDE\\Brian\Particle1\OCV\Data_0004.tif
2-Theta Angle (Degrees)
Intensity
       2000
 0.07475  0.0000000E+00
 0.15525  0.0000000E+00
 0.23575  0.0000000E+00
 0.31625  0.0000000E+00
 0.39675  0.0000000E+00
 0.47725  0.0000000E+00
 0.55775  0.0000000E+00
 0.63825  0.0000000E+00
 0.71875  0.0000000E+00
 0.79925  0.0000000E+00
 0.87975  0.0000000E+00
 0.96025  0.0000000E+00
 1.04075  0.0000000E+00
 1.12125  0.0000000E+00
 1.20175  0.0000000E+00
 1.28225  0.0000000E+00
 1.36275  0.0000000E+00
 1.44325  0.0000000E+00
 1.52375  0.0000000E+00
 1.60425  0.0000000E+00
 1.68475  0.0000000E+00
 1.76525  0.0000000E+00
 1.84575  0.0000000E+00
 1.92625  0.0000000E+00
 2.00675  0.0000000E+00
 2.08725  0.0000000E+00
 2.16775  0.0000000E+00
 2.24825  0.0000000E+00
 2.32875  0.0000000E+00
 2.40925  0.0000000E+00
 2.48975  0.0000000E+00
 2.57025  0.0000000E+00
 2.65075  0.0000000E+00
 2.73125  0.0000000E+00
 2.81175  0.0000000E+00
 2.89225  35.1624
 2.97275  35.8994
 3.05325  37.7923
 3.13375  35.1743
 3.21425  35.8427
 3.29475  34.8533
 3.37525  34.6864
 3.45575  34.5279
 3.53625  34.644
 3.61675  33.6061
 3.69725  33.3357
 3.77775  33.5875
 3.85825  32.8742
 3.93875  33.0056
 4.01925  32.7894
 4.09975  32.5128
 4.18025  32.6213
 4.26075  32.1256
 4.34125  32.759
 4.42175  32.2671
 4.50225  32.8626
 4.58275  33.0136
 4.66325  33.4321
 4.74375  32.8988
 4.82425  32.8683
 4.90475  33.7202
 4.98525  33.458
 5.06575  33.5259
 5.14625  33.9865
 5.22675  34.2621
 5.30725  34.47
 5.38775  34.8363
 5.46825  35.1503
 5.54875  35.1594
 5.62925  35.5777
 5.70975  35.6144
 5.79025  36.005
 5.87075  36.2068
 5.95125  40.9161
 6.03175  39.26
 6.11225  36.9717
 6.19275  37.2188
 6.27325  37.612
 6.35375  38.0394
 6.43425  38.8762
 6.51475  39.5768
 6.59525  40.108
 6.67575  40.599
 6.75625  41.1699
 6.83675  41.8498
 6.91725  42.364
 6.99775  42.7306
 7.07825  43.3939
 7.15875  43.5991
 7.23925  44.1776
 7.31975  44.3556
 7.40025  44.814
 7.48075  44.8787
 7.56125  45.0459
 7.64175  44.94
 7.72225  44.9212
 7.80275  44.8876
 7.88325  44.8956
 7.96375  44.5806
 8.04425  44.1447
 8.12475  43.692
 8.20525  42.959
 8.28575  42.1229
 8.36625  40.881
 8.44675  39.6056
 8.52725  38.3251
 8.60775  37.1122
 8.68825  36.0391
 8.76875  34.6925
 8.84925  33.5493
 8.92975  32.6956
 9.01025  31.3812
 9.09075  30.6228
 9.17125  29.6109
 9.25175  29.0807
 9.33225  28.2163
 9.41275  27.8216
 9.49325  27.1347
 9.57375  26.667
 9.65425  26.2628
 9.73475  25.9644
 9.81525  25.6015
 9.89575  25.3242
 9.97625  25.191
 10.0567  24.8387
 10.1373  24.4774
 10.2178  24.1962
 10.2982  24.0892
 10.3788  23.8646
 10.4593  23.8683
 10.5397  23.8205
 10.6203  23.5782
 10.7007  23.547
 10.7813  23.2318
 10.8618  23.1624
 10.9422  22.9068
 11.0228  22.8822
 11.1033  23.0429
 11.1837  22.958
 11.2643  22.8351
 11.3447  22.7748
 11.4253  23.1528
 11.5058  23.1046
 11.5862  25.203
 11.6668  23.3038
 11.7473  22.8537
 11.8277  22.7208
 11.9083  22.8268
 11.9887  23.0899
 12.0693  23.5586
 12.1498  23.5402
 12.2302  22.8739
 12.3108  23.0019
 12.3913  22.8601
 12.4718  23.0101
 12.5523  22.9333
 12.6328  23.0395
 12.7133  23.4908
 12.7938  23.5568
 12.8742  23.8007
 12.9548  24.1796
 13.0353  24.7953
 13.1158  25.1763
 13.1963  25.9874
 13.2768  27.0973
 13.3573  28.1577
 13.4378  28.914
 13.5183  29.7761
 13.5988  30.093
 13.6793  30.2231
 13.7598  29.8066
 13.8403  29.5154
 13.9208  31.4002
 14.0013  30.1628
 14.0818  27.8386
 14.1623  27.3463
 14.2428  26.8966
 14.3233  26.5689
 14.4038  26.3622
 14.4843  26.0881
 14.5648  25.7783
 14.6453  25.5159
 14.7258  25.6327
 14.8063  25.4105
 14.8868  25.3252
 14.9673  25.3579
 15.0478  25.198
 15.1283  25.1011
 15.2088  25.8076
 15.2892  24.94
 15.3698  24.6816
 15.4503  24.8949
 15.5308  24.8204
 15.6113  24.7752
 15.6918  24.9433
 15.7723  24.9124
 15.8528  24.7995
 15.9332  24.9823
 16.0138  24.9626
 16.0943  25.1534
 16.1748  25.1733
 16.2553  26.8573
 16.3358  25.3989
 16.4163  24.9336
 16.4967  24.9447
 16.5773  24.9482
 16.6578  24.8681
 16.7383  24.8448
 16.8188  24.7419
 16.8992  24.714
 16.9798  24.5981
 17.0603  24.4031
 17.1408  24.5554
 17.2213  24.6465
 17.3017  24.4496
 17.3823  24.2126
 17.4628  24.3604
 17.5433  24.1912
 17.6238  24.0806
 17.7042  23.9949
 17.7847  23.9412
 17.8653  23.9612
 17.9458  24.0625
 18.0263  24.2184
 18.1068  25.3466
 18.1872  24.0081
 18.2678  23.7657
 18.3483  23.9673
 18.4288  23.9322
 18.5093  23.7422
 18.5897  24.0818
 18.6703  23.9323
 18.7508  23.9042
 18.8313  23.8349
 18.9118  23.709
 18.9922  23.705
 19.0727  23.8172
 19.1533  23.7249
 19.2338  23.7535
 19.3143  23.8267
 19.3948  23.8976
 19.4752  23.9138
 19.5558  23.9562
 19.6363  24.0837
 19.7168  25.1853
 19.7973  24.6953
 19.8777  25.2986
 19.9582  24.136
 20.0388  24.0077
 20.1193  23.9694
 20.1998  23.9885
 20.2803  23.9854
 20.3607  23.938
 20.4413  24.0756
 20.5218  23.8796
 20.6023  23.9885
 20.6828  24.2369
 20.7632  24.9503
 20.8438  24.2235
 20.9243  24.2124
 21.0048  24.1484
 21.0853  24.0955
 21.1658  24.0269
 21.2462  24.1343
 21.3268  24.2124
 21.4073  24.238
 21.4878  24.1516
 21.5683  24.2154
 21.6487  24.3681
 21.7293  24.3202
 21.8098  24.3524
 21.8903  24.5259
 21.9708  24.5157
 22.0512  24.5291
 22.1318  24.6441
 22.2123  24.6344
 22.2928  24.8056
 22.3733  24.8876
 22.4538  24.9113
 22.5343  25.1041
 22.6148  25.1604
 22.6953  25.2249
 22.7758  25.4735
 22.8563  25.7775
 22.9367  26.1811
 22.9943  26.5632

File: Data_0005.chi
F:\20151113_APS_34IDE\\Brian\Particle1\OCV\Data_0005.tif
2-Theta Angle (Degrees)
Intensity
       2000
 0.07475  0.0000000E+00
 0.15525  0.0000000E+00
 0.23575  0.0000000E+00
 0.31625  0.0000000E+00
 0.39675  0.0000000E+00
 0.47725  0.0000000E+00
 0.55775  0.0000000E+00
 0.63825  0.0000000E+00
 0.71875  0.0000000E+00
 0.79925  0.0000000E+00
 0.87975  0.0000000E+00
 0.96025  0.0000000E+00
 1.04075  0.0000000E+00
 1.12125  0.0000000E+00
 1.20175  0.0000000E+00
 1.28225  0.0000000E+00
 1.36275  0.0000000E+00
 1.44325  0.0000000E+00
 1.52375  0.0000000E+00
 1.60425  0.0000000E+00
 1.68475  0.0000000E+00
 1.76525  0.0000000E+00
 1.84575  0.0000000E+00
 1.92625  0.0000000E+00
 2.00675  0.0000000E+00
 2.08725  0.0000000E+00
 2.16775  0.0000000E+00
 2.24825  0.0000000E+00
 2.32875  0.0000000E+00
 2.40925  0.0000000E+00
 2.48975  0.0000000E+00
 2.57025  0.0000000E+00
 2.65075  0.0000000E+00
 2.73125  0.0000000E+00
 2.81175  0.0000000E+00
 2.89225  34.2409
 2.97275  35.5242
 3.05325  35.5195
 3.13375  35.3779
 3.21425  35.157
 3.29475  35.0962
 3.37525  34.4357
 3.45575  34.6314
 3.53625  33.6455
 3.61675  33.1747
 3.69725  33.3598
 3.77775  33.2422
 3.85825  33.1079
 3.93875  32.9484
 4.01925  32.6962
 4.09975  32.4812
 4.18025  32.7423
 4.26075  32.4063
 4.34125  32.9293
 4.42175  32.764
 4.50225  32.5646
 4.58275  32.4104
 4.66325  33.0766
 4.74375  32.647
 4.82425  32.7202
 4.90475  33.0821
 4.98525  32.8852
 5.06575  33.0776
 5.14625  33.9662
 5.22675  34.008
 5.30725  34.1406
 5.38775  34.4499
 5.46825  34.626
 5.54875  35.2818
 5.62925  35.2835
 5.70975  35.67
 5.79025  35.925
 5.87075  36.4172
 5.95125  40.1059
 6.03175  39.6147
 6.11225  36.8285
 6.19275  37.245
 6.27325  37.8031
 6.35375  38.2331
 6.43425  38.7246
 6.51475  39.3266
 6.59525  39.5918
 6.67575  40.3982
 6.75625  41.2741
 6.83675  41.742
 6.91725  41.987
 6.99775  42.5028
 7.07825  43.2247
 7.15875  43.2548
 7.23925  44.0263
 7.31975  44.0267
 7.40025  44.3895
 7.48075  44.4562
 7.56125  44.8481
 7.64175  44.9639
 7.72225  44.9131
 7.80275  44.7066
 7.88325  44.4863
 7.96375  43.9156
 8.04425  43.7019
 8.12475  43.2225
 8.20525  42.2847
 8.28575  41.5495
 8.36625  40.7047
 8.44675  39.2216
 8.52725  38.1809
 8.60775  36.9088
 8.68825  35.891
 8.76875  34.5277
 8.84925  33.2194
 8.92975  32.2839
 9.01025  31.1909
 9.09075  30.5358
 9.17125  29.3059
 9.25175  28.5882
 9.33225  28.0183
 9.41275  27.4731
 9.49325  27.073
 9.57375  26.3087
 9.65425  25.9942
 9.73475  25.5654
 9.81525  25.4148
 9.89575  24.9535
 9.97625  24.7203
 10.0567  24.4705
 10.1373  24.3668
 10.2178  24.1785
 10.2982  23.9834
 10.3788  23.6077
 10.4593  23.531
 10.5397  23.4401
 10.6203  23.2661
 10.7007  23.1991
 10.7813  23.0928
 10.8618  23.0329
 10.9422  22.9593
 11.0228  22.9417
 11.1033  22.9335
 11.1837  22.7357
 11.2643  22.5122
 11.3447  22.4694
 11.4253  23.0643
 11.5058  23.1686
 11.5862  27.91
 11.6668  23.3097
 11.7473  22.8052
 11.8277  22.7701
 11.9083  22.8412
 11.9887  23.4464
 12.0693  23.8709
 12.1498  23.6331
 12.2302  22.7309
 12.3108  22.7107
 12.3913  22.7239
 12.4718  22.7901
 12.5523  22.9938
 12.6328  23.1065
 12.7133  23.1688
 12.7938  23.5237
 12.8742  23.5451
 12.9548  23.9456
 13.0353  24.4009
 13.1158  25.249
 13.1963  25.9985
 13.2768  26.9133
 13.3573  27.984
 13.4378  28.7573
 13.5183  29.6317
 13.5988  29.9134
 13.6793  29.8949
 13.7598  29.6141
 13.8403  29.4195
 13.9208  31.3174
 14.0013  30.411
 14.0818  27.9127
 14.1623  27.1984
 14.2428  26.7737
 14.3233  26.2387
 14.4038  26.0936
 14.4843  26.009
 14.5648  25.7174
 14.6453  25.525
 14.7258  25.4136
 14.8063  25.1468
 14.8868  25.169
 14.9673  25.0918
 15.0478  24.8816
 15.1283  25.0434
 15.2088  25.6505
 15.2892  24.813
 15.3698  24.649
 15.4503  24.856
 15.5308  24.587
 15.6113  24.7154
 15.6918  24.856
 15.7723  24.6675
 15.8528  24.8179
 15.9332  24.8011
 16.0138  24.8193
 16.0943  24.8654
 16.1748  25.0289
 16.2553  26.4019
 16.3358  25.4084
 16.4163  25.0318
 16.4967  24.8537
 16.5773  24.7715
 16.6578  24.8098
 16.7383  24.6736
 16.8188  24.639
 16.8992  24.6884
 16.9798  24.4456
 17.0603  24.3516
 17.1408  24.426
 17.2213  24.5033
 17.3017  24.2679
 17.3823  24.2204
 17.4628  24.2138
 17.5433  24.1488
 17.6238  24.0413
 17.7042  24.1339
 17.7847  23.9521
 17.8653  24.0276
 17.9458  24.0149
 18.0263  24.4801
 18.1068  25.2446
 18.1872  23.9384
 18.2678  23.7381
 18.3483  23.7142
 18.4288  23.7864
 18.5093  23.699
 18.5897  23.7127
 18.6703  23.6044
 18.7508  23.6053
 18.8313  23.5997
 18.9118  23.6719
 18.9922  23.5386
 19.0727  23.6262
 19.1533  23.7287
 19.2338  23.7503
 19.3143  23.6965
 19.3948  23.7541
 19.4752  23.8355
 19.5558  23.822
 19.6363  23.9105
 19.7168  25.3094
 19.7973  24.8158
 19.8777  25.6835
 19.9582  24.0855
 20.0388  23.9139
 20.1193  23.8841
 20.1998  23.8148
 20.2803  23.7642
 20.3607  23.9255
 20.4413  23.9788
 20.5218  23.765
 20.6023  24.0419
 20.6828  24.3706
 20.7632  26.3152
 20.8438  24.3323
 20.9243  24.2554
 21.0048  24.034
 21.0853  24.0084
 21.1658  24.0576
 21.2462  24.0088
 21.3268  24.0047
 21.4073  24.0582
 21.4878  24.0576
 21.5683  24.1435
 21.6487  24.2746
 21.7293  24.3474
 21.8098  24.3507
 21.8903  24.4239
 21.9708  24.4596
 22.0512  24.5137
 22.1318  24.4772
 22.2123  24.4369
 22.2928  24.4854
 22.3733  24.6504
 22.4538  24.7596
 22.5343  25.0228
 22.6148  25.0138
 22.6953  25.2775
 22.7758  25.418
 22.8563  25.5586
 22.9367  26.0271
 22.9943  26.4307