Folder: scimap-tests/test-data-xrd/xrd-map-34-ID-E (part 30)

File: Data_0123.chi
F:\20151113_APS_34IDE\\Brian\Particle1\OCV\Data_0123.tif
2-Theta Angle (Degrees)
Intensity
       2000
 0.07475  0.0000000E+00
 0.15525  0.0000000E+00
 0.23575  0.0000000E+00
 0.31625  0.0000000E+00
 0.39675  0.0000000E+00
 0.47725  0.0000000E+00
 0.55775  0.0000000E+00
 0.63825  0.0000000E+00
 0.71875  0.0000000E+00
 0.79925  0.0000000E+00
 0.87975  0.0000000E+00
 0.96025  0.0000000E+00
 1.04075  0.0000000E+00
 1.12125  0.0000000E+00
 1.20175  0.0000000E+00
 1.28225  0.0000000E+00
 1.36275  0.0000000E+00
 1.44325  0.0000000E+00
 1.52375  0.0000000E+00
 1.60425  0.0000000E+00
 1.68475  0.0000000E+00
 1.76525  0.0000000E+00
 1.84575  0.0000000E+00
 1.92625  0.0000000E+00
 2.00675  0.0000000E+00
 2.08725  0.0000000E+00
 2.16775  0.0000000E+00
 2.24825  0.0000000E+00
 2.32875  0.0000000E+00
 2.40925  0.0000000E+00
 2.48975  0.0000000E+00
 2.57025  0.0000000E+00
 2.65075  0.0000000E+00
 2.73125  0.0000000E+00
 2.81175  0.0000000E+00
 2.89225  35.5454
 2.97275  39.145
 3.05325  35.3642
 3.13375  36.2229
 3.21425  36.2237
 3.29475  34.4664
 3.37525  36.5661
 3.45575  33.9367
 3.53625  32.76
 3.61675  34.0358
 3.69725  33.383
 3.77775  33.2427
 3.85825  32.9632
 3.93875  32.7794
 4.01925  32.6158
 4.09975  32.7676
 4.18025  32.1501
 4.26075  32.7319
 4.34125  32.7096
 4.42175  32.6695
 4.50225  32.3168
 4.58275  32.4436
 4.66325  33.0533
 4.74375  32.9967
 4.82425  32.5909
 4.90475  32.8931
 4.98525  33.1626
 5.06575  33.2737
 5.14625  34.0979
 5.22675  34.0641
 5.30725  34.4418
 5.38775  34.5548
 5.46825  34.5224
 5.54875  35.0986
 5.62925  35.6849
 5.70975  35.5329
 5.79025  35.7655
 5.87075  36.2116
 5.95125  40.5343
 6.03175  40.7945
 6.11225  36.9872
 6.19275  37.1207
 6.27325  37.5117
 6.35375  38.0957
 6.43425  38.4517
 6.51475  39.1401
 6.59525  39.9547
 6.67575  40.3413
 6.75625  41.2197
 6.83675  41.5224
 6.91725  42.0895
 6.99775  42.3742
 7.07825  43.1403
 7.15875  43.3249
 7.23925  43.7028
 7.31975  44.0511
 7.40025  44.5521
 7.48075  44.6877
 7.56125  44.6935
 7.64175  44.708
 7.72225  44.7383
 7.80275  44.3575
 7.88325  44.2102
 7.96375  44.0423
 8.04425  43.6833
 8.12475  42.9719
 8.20525  42.3694
 8.28575  41.3526
 8.36625  40.248
 8.44675  39.1447
 8.52725  37.9697
 8.60775  36.5856
 8.68825  35.5349
 8.76875  34.2499
 8.84925  33.148
 8.92975  31.8535
 9.01025  31.0036
 9.09075  30.0711
 9.17125  29.2748
 9.25175  28.298
 9.33225  27.6575
 9.41275  27.2345
 9.49325  26.8505
 9.57375  26.2005
 9.65425  25.7355
 9.73475  25.295
 9.81525  25.1147
 9.89575  24.8732
 9.97625  24.4669
 10.0567  24.2148
 10.1373  23.9539
 10.2178  24.114
 10.2982  23.7882
 10.3788  23.5987
 10.4593  23.4134
 10.5397  23.2667
 10.6203  23.2898
 10.7007  23.1649
 10.7813  22.9731
 10.8618  22.8116
 10.9422  22.8805
 11.0228  22.6571
 11.1033  22.6763
 11.1837  22.5795
 11.2643  22.5011
 11.3447  22.5457
 11.4253  22.6968
 11.5058  22.6322
 11.5862  24.2899
 11.6668  22.844
 11.7473  22.5543
 11.8277  22.548
 11.9083  22.3948
 11.9887  22.8738
 12.0693  23.0183
 12.1498  23.0453
 12.2302  22.6189
 12.3108  22.7136
 12.3913  22.6545
 12.4718  22.6716
 12.5523  22.7306
 12.6328  22.8981
 12.7133  23.0501
 12.7938  23.7175
 12.8742  23.7088
 12.9548  23.7134
 13.0353  24.1561
 13.1158  24.9179
 13.1963  25.5769
 13.2768  26.803
 13.3573  27.9719
 13.4378  28.7118
 13.5183  29.5474
 13.5988  29.7691
 13.6793  30.0096
 13.7598  29.4643
 13.8403  29.1045
 13.9208  30.4973
 14.0013  29.8316
 14.0818  27.5054
 14.1623  27.0883
 14.2428  26.4392
 14.3233  26.0198
 14.4038  25.9562
 14.4843  25.7327
 14.5648  25.5369
 14.6453  25.4159
 14.7258  25.1875
 14.8063  24.876
 14.8868  24.9246
 14.9673  24.66
 15.0478  24.8753
 15.1283  24.8993
 15.2088  25.2046
 15.2892  24.5784
 15.3698  24.4416
 15.4503  24.4235
 15.5308  24.4481
 15.6113  24.5841
 15.6918  24.5858
 15.7723  24.6641
 15.8528  24.5331
 15.9332  24.5409
 16.0138  24.6664
 16.0943  24.8004
 16.1748  24.9633
 16.2553  28.469
 16.3358  25.092
 16.4163  24.7804
 16.4967  24.6957
 16.5773  24.6179
 16.6578  24.414
 16.7383  24.5319
 16.8188  24.4461
 16.8992  24.235
 16.9798  24.1871
 17.0603  24.0908
 17.1408  24.0327
 17.2213  24.0467
 17.3017  24.1618
 17.3823  23.8973
 17.4628  24.0009
 17.5433  23.9812
 17.6238  24.0213
 17.7042  23.7885
 17.7847  23.7458
 17.8653  23.5228
 17.9458  23.6729
 18.0263  23.8174
 18.1068  24.2017
 18.1872  23.6656
 18.2678  23.5023
 18.3483  23.4337
 18.4288  23.5378
 18.5093  23.492
 18.5897  23.4591
 18.6703  23.4664
 18.7508  23.5288
 18.8313  23.4152
 18.9118  23.4933
 18.9922  23.5069
 19.0727  23.5405
 19.1533  23.5111
 19.2338  23.4876
 19.3143  23.509
 19.3948  23.5377
 19.4752  23.4898
 19.5558  23.5789
 19.6363  23.9529
 19.7168  26.5196
 19.7973  24.5628
 19.8777  24.8683
 19.9582  23.7984
 20.0388  23.7265
 20.1193  23.6654
 20.1998  23.6816
 20.2803  23.6065
 20.3607  23.5592
 20.4413  23.6079
 20.5218  23.5633
 20.6023  23.7558
 20.6828  24.0419
 20.7632  24.7087
 20.8438  23.8705
 20.9243  23.9682
 21.0048  23.8757
 21.0853  23.9536
 21.1658  23.5932
 21.2462  23.8906
 21.3268  23.8116
 21.4073  23.8142
 21.4878  23.8717
 21.5683  23.9655
 21.6487  24.0088
 21.7293  24.1
 21.8098  24.1756
 21.8903  24.1185
 21.9708  24.2207
 22.0512  24.1213
 22.1318  24.3312
 22.2123  24.2683
 22.2928  24.3572
 22.3733  24.337
 22.4538  24.4861
 22.5343  24.6229
 22.6148  24.7837
 22.6953  25.121
 22.7758  25.4032
 22.8563  25.4042
 22.9367  25.8857
 22.9943  26.0725

File: Data_0124.chi
F:\20151113_APS_34IDE\\Brian\Particle1\OCV\Data_0124.tif
2-Theta Angle (Degrees)
Intensity
       2000
 0.07475  0.0000000E+00
 0.15525  0.0000000E+00
 0.23575  0.0000000E+00
 0.31625  0.0000000E+00
 0.39675  0.0000000E+00
 0.47725  0.0000000E+00
 0.55775  0.0000000E+00
 0.63825  0.0000000E+00
 0.71875  0.0000000E+00
 0.79925  0.0000000E+00
 0.87975  0.0000000E+00
 0.96025  0.0000000E+00
 1.04075  0.0000000E+00
 1.12125  0.0000000E+00
 1.20175  0.0000000E+00
 1.28225  0.0000000E+00
 1.36275  0.0000000E+00
 1.44325  0.0000000E+00
 1.52375  0.0000000E+00
 1.60425  0.0000000E+00
 1.68475  0.0000000E+00
 1.76525  0.0000000E+00
 1.84575  0.0000000E+00
 1.92625  0.0000000E+00
 2.00675  0.0000000E+00
 2.08725  0.0000000E+00
 2.16775  0.0000000E+00
 2.24825  0.0000000E+00
 2.32875  0.0000000E+00
 2.40925  0.0000000E+00
 2.48975  0.0000000E+00
 2.57025  0.0000000E+00
 2.65075  0.0000000E+00
 2.73125  0.0000000E+00
 2.81175  0.0000000E+00
 2.89225  35.0959
 2.97275  34.7148
 3.05325  36.2216
 3.13375  36.0827
 3.21425  35.4992
 3.29475  35.0154
 3.37525  35.0475
 3.45575  33.9627
 3.53625  34.2193
 3.61675  33.3292
 3.69725  33.5068
 3.77775  33.3509
 3.85825  32.7392
 3.93875  32.9296
 4.01925  32.5756
 4.09975  32.3
 4.18025  32.3694
 4.26075  32.1551
 4.34125  32.3012
 4.42175  32.2257
 4.50225  32.5054
 4.58275  32.1144
 4.66325  32.9716
 4.74375  32.6797
 4.82425  32.7495
 4.90475  33.1102
 4.98525  33.0316
 5.06575  33.2683
 5.14625  33.5571
 5.22675  33.9833
 5.30725  34.0935
 5.38775  34.5086
 5.46825  34.8269
 5.54875  34.9287
 5.62925  35.0738
 5.70975  35.7114
 5.79025  35.7707
 5.87075  36.3875
 5.95125  42.9265
 6.03175  41.7451
 6.11225  37.1476
 6.19275  37.2166
 6.27325  37.3793
 6.35375  37.9454
 6.43425  38.4342
 6.51475  39.0383
 6.59525  39.7451
 6.67575  40.4259
 6.75625  40.9922
 6.83675  41.4397
 6.91725  42.1932
 6.99775  42.4163
 7.07825  42.9402
 7.15875  42.9993
 7.23925  43.7862
 7.31975  44.0614
 7.40025  43.9015
 7.48075  44.3921
 7.56125  44.3764
 7.64175  44.5359
 7.72225  44.3389
 7.80275  44.2183
 7.88325  43.9714
 7.96375  43.6683
 8.04425  43.0345
 8.12475  42.9334
 8.20525  41.9497
 8.28575  41.1913
 8.36625  40.1877
 8.44675  38.9399
 8.52725  37.5651
 8.60775  36.2622
 8.68825  35.0956
 8.76875  33.6779
 8.84925  32.7171
 8.92975  31.4513
 9.01025  30.7278
 9.09075  29.771
 9.17125  28.9885
 9.25175  28.1476
 9.33225  27.3152
 9.41275  26.9969
 9.49325  26.4137
 9.57375  25.9463
 9.65425  25.2089
 9.73475  25.1544
 9.81525  24.8744
 9.89575  24.4785
 9.97625  24.2539
 10.0567  24.1367
 10.1373  23.8504
 10.2178  23.6658
 10.2982  23.3882
 10.3788  23.2327
 10.4593  23.2227
 10.5397  22.9996
 10.6203  22.9567
 10.7007  22.9041
 10.7813  22.8853
 10.8618  22.6234
 10.9422  22.7912
 11.0228  22.501
 11.1033  22.4029
 11.1837  22.4478
 11.2643  22.3501
 11.3447  22.258
 11.4253  22.7691
 11.5058  23.2083
 11.5862  33.9698
 11.6668  23.6349
 11.7473  22.5396
 11.8277  22.4401
 11.9083  22.5244
 11.9887  22.7973
 12.0693  23.5102
 12.1498  23.2354
 12.2302  22.4585
 12.3108  22.4771
 12.3913  22.4113
 12.4718  22.3983
 12.5523  22.5239
 12.6328  22.7588
 12.7133  22.7307
 12.7938  22.8889
 12.8742  23.2345
 12.9548  23.6231
 13.0353  24.0144
 13.1158  24.7533
 13.1963  25.6194
 13.2768  26.429
 13.3573  27.4808
 13.4378  28.4056
 13.5183  29.1986
 13.5988  29.5952
 13.6793  29.5707
 13.7598  29.5139
 13.8403  29.1745
 13.9208  31.1305
 14.0013  30.1035
 14.0818  27.4951
 14.1623  26.869
 14.2428  26.2577
 14.3233  26.0078
 14.4038  25.7801
 14.4843  25.4894
 14.5648  25.4138
 14.6453  25.2327
 14.7258  25.0519
 14.8063  24.9691
 14.8868  24.7412
 14.9673  24.6368
 15.0478  24.8004
 15.1283  24.9416
 15.2088  25.4039
 15.2892  24.4746
 15.3698  24.4905
 15.4503  24.4423
 15.5308  24.3755
 15.6113  24.4591
 15.6918  24.2745
 15.7723  24.2775
 15.8528  24.3504
 15.9332  24.5688
 16.0138  24.4509
 16.0943  24.4235
 16.1748  24.8423
 16.2553  27.4373
 16.3358  24.9636
 16.4163  24.8537
 16.4967  24.5378
 16.5773  24.5859
 16.6578  24.4761
 16.7383  24.4021
 16.8188  24.4074
 16.8992  24.3396
 16.9798  24.2116
 17.0603  24.074
 17.1408  24.0586
 17.2213  23.9731
 17.3017  23.9372
 17.3823  23.9423
 17.4628  23.8046
 17.5433  23.8422
 17.6238  23.7342
 17.7042  23.812
 17.7847  23.6201
 17.8653  23.5377
 17.9458  23.7441
 18.0263  23.7615
 18.1068  24.4498
 18.1872  23.6439
 18.2678  23.3947
 18.3483  23.4874
 18.4288  23.4461
 18.5093  23.2383
 18.5897  23.3757
 18.6703  23.4112
 18.7508  23.3512
 18.8313  23.3076
 18.9118  23.3253
 18.9922  23.2437
 19.0727  23.382
 19.1533  23.2635
 19.2338  23.4126
 19.3143  23.4025
 19.3948  23.492
 19.4752  23.5471
 19.5558  23.4333
 19.6363  23.7167
 19.7168  25.0247
 19.7973  24.4679
 19.8777  24.7937
 19.9582  23.7369
 20.0388  23.6878
 20.1193  23.549
 20.1998  23.4657
 20.2803  23.5454
 20.3607  23.5458
 20.4413  23.5522
 20.5218  23.5457
 20.6023  23.7055
 20.6828  23.852
 20.7632  24.6049
 20.8438  23.874
 20.9243  23.8554
 21.0048  23.5682
 21.0853  23.6781
 21.1658  23.6529
 21.2462  23.7037
 21.3268  23.6107
 21.4073  23.7882
 21.4878  23.71
 21.5683  23.7973
 21.6487  23.8573
 21.7293  23.9919
 21.8098  23.9553
 21.8903  24.0032
 21.9708  24.0051
 22.0512  24.1364
 22.1318  24.0721
 22.2123  24.1568
 22.2928  24.2566
 22.3733  24.3472
 22.4538  24.4447
 22.5343  24.5934
 22.6148  24.7098
 22.6953  25.0116
 22.7758  25.0604
 22.8563  25.3849
 22.9367  25.7979
 22.9943  26.2139

File: Data_0125.chi
F:\20151113_APS_34IDE\\Brian\Particle1\OCV\Data_0125.tif
2-Theta Angle (Degrees)
Intensity
       2000
 0.07475  0.0000000E+00
 0.15525  0.0000000E+00
 0.23575  0.0000000E+00
 0.31625  0.0000000E+00
 0.39675  0.0000000E+00
 0.47725  0.0000000E+00
 0.55775  0.0000000E+00
 0.63825  0.0000000E+00
 0.71875  0.0000000E+00
 0.79925  0.0000000E+00
 0.87975  0.0000000E+00
 0.96025  0.0000000E+00
 1.04075  0.0000000E+00
 1.12125  0.0000000E+00
 1.20175  0.0000000E+00
 1.28225  0.0000000E+00
 1.36275  0.0000000E+00
 1.44325  0.0000000E+00
 1.52375  0.0000000E+00
 1.60425  0.0000000E+00
 1.68475  0.0000000E+00
 1.76525  0.0000000E+00
 1.84575  0.0000000E+00
 1.92625  0.0000000E+00
 2.00675  0.0000000E+00
 2.08725  0.0000000E+00
 2.16775  0.0000000E+00
 2.24825  0.0000000E+00
 2.32875  0.0000000E+00
 2.40925  0.0000000E+00
 2.48975  0.0000000E+00
 2.57025  0.0000000E+00
 2.65075  0.0000000E+00
 2.73125  0.0000000E+00
 2.81175  0.0000000E+00
 2.89225  34.0102
 2.97275  34.9402
 3.05325  35.0993
 3.13375  34.5772
 3.21425  35.3089
 3.29475  34.8107
 3.37525  34.3553
 3.45575  34.8745
 3.53625  33.8704
 3.61675  32.9959
 3.69725  32.8849
 3.77775  33.3222
 3.85825  33.1541
 3.93875  32.4262
 4.01925  32.459
 4.09975  32.5178
 4.18025  32.0638
 4.26075  32.1387
 4.34125  32.1933
 4.42175  32.3447
 4.50225  32.8611
 4.58275  32.7041
 4.66325  32.7144
 4.74375  32.4876
 4.82425  32.6147
 4.90475  32.663
 4.98525  33.1539
 5.06575  33.243
 5.14625  34.066
 5.22675  33.9464
 5.30725  34.3213
 5.38775  34.7271
 5.46825  34.6581
 5.54875  35.0843
 5.62925  35.4474
 5.70975  35.5379
 5.79025  35.8869
 5.87075  36.1824
 5.95125  39.879
 6.03175  40.3465
 6.11225  36.6716
 6.19275  36.7334
 6.27325  37.26
 6.35375  37.8494
 6.43425  38.3883
 6.51475  39.0583
 6.59525  39.4825
 6.67575  40.2182
 6.75625  41.1182
 6.83675  41.4895
 6.91725  42.0065
 6.99775  42.0074
 7.07825  42.6985
 7.15875  43.1816
 7.23925  43.477
 7.31975  43.814
 7.40025  43.9759
 7.48075  44.2217
 7.56125  44.5064
 7.64175  44.4119
 7.72225  44.1823
 7.80275  43.9926
 7.88325  43.7278
 7.96375  43.3122
 8.04425  43.1558
 8.12475  42.8076
 8.20525  41.8604
 8.28575  41.1937
 8.36625  39.9941
 8.44675  38.9603
 8.52725  37.7293
 8.60775  36.4264
 8.68825  35.1653
 8.76875  33.7728
 8.84925  32.7511
 8.92975  31.7686
 9.01025  30.6474
 9.09075  29.5474
 9.17125  28.9271
 9.25175  28.2257
 9.33225  27.4665
 9.41275  26.8499
 9.49325  26.5491
 9.57375  25.9645
 9.65425  25.5703
 9.73475  25.3373
 9.81525  24.948
 9.89575  24.5458
 9.97625  24.2489
 10.0567  24.0477
 10.1373  23.9093
 10.2178  23.9007
 10.2982  23.7011
 10.3788  23.427
 10.4593  23.183
 10.5397  23.0898
 10.6203  23.0062
 10.7007  22.9996
 10.7813  22.7388
 10.8618  22.7104
 10.9422  22.7253
 11.0228  22.6227
 11.1033  22.6535
 11.1837  22.4373
 11.2643  22.3776
 11.3447  22.4132
 11.4253  22.7466
 11.5058  23.3725
 11.5862  40.0154
 11.6668  25.2851
 11.7473  22.4742
 11.8277  22.4944
 11.9083  22.5355
 11.9887  22.8033
 12.0693  23.1641
 12.1498  23.3139
 12.2302  22.3238
 12.3108  22.3875
 12.3913  22.3605
 12.4718  22.4607
 12.5523  22.5607
 12.6328  22.663
 12.7133  22.8526
 12.7938  22.7995
 12.8742  23.2356
 12.9548  23.5505
 13.0353  23.9426
 13.1158  24.7353
 13.1963  25.4451
 13.2768  26.4703
 13.3573  27.6655
 13.4378  28.5815
 13.5183  29.2962
 13.5988  29.8542
 13.6793  29.6273
 13.7598  29.1636
 13.8403  28.7847
 13.9208  30.1475
 14.0013  29.9308
 14.0818  27.3106
 14.1623  26.7276
 14.2428  26.4469
 14.3233  26.0576
 14.4038  25.9097
 14.4843  25.6222
 14.5648  25.5611
 14.6453  25.2431
 14.7258  24.925
 14.8063  25.0005
 14.8868  24.7819
 14.9673  24.5988
 15.0478  24.6827
 15.1283  24.9056
 15.2088  25.842
 15.2892  24.5364
 15.3698  24.4912
 15.4503  24.5035
 15.5308  24.3792
 15.6113  24.2937
 15.6918  24.3976
 15.7723  24.4009
 15.8528  24.4139
 15.9332  24.5284
 16.0138  24.5241
 16.0943  24.5042
 16.1748  24.8174
 16.2553  26.8999
 16.3358  24.9058
 16.4163  24.8066
 16.4967  24.6573
 16.5773  24.6836
 16.6578  24.714
 16.7383  24.4949
 16.8188  24.3393
 16.8992  24.1739
 16.9798  24.146
 17.0603  24.0329
 17.1408  23.9584
 17.2213  24.0728
 17.3017  23.9872
 17.3823  23.9224
 17.4628  23.8982
 17.5433  23.7391
 17.6238  23.6215
 17.7042  23.6549
 17.7847  23.6035
 17.8653  23.6156
 17.9458  23.5207
 18.0263  24.141
 18.1068  24.8065
 18.1872  23.7781
 18.2678  23.5331
 18.3483  23.4632
 18.4288  23.4097
 18.5093  23.3707
 18.5897  23.3963
 18.6703  23.4374
 18.7508  23.3405
 18.8313  23.3311
 18.9118  23.2597
 18.9922  23.216
 19.0727  23.3682
 19.1533  23.3999
 19.2338  23.4595
 19.3143  23.3312
 19.3948  23.6173
 19.4752  23.4673
 19.5558  23.4168
 19.6363  23.7576
 19.7168  24.9317
 19.7973  24.7721
 19.8777  25.2319
 19.9582  23.706
 20.0388  23.5982
 20.1193  23.5656
 20.1998  23.545
 20.2803  23.4748
 20.3607  23.4364
 20.4413  23.6325
 20.5218  23.5512
 20.6023  23.6152
 20.6828  24.0118
 20.7632  26.5589
 20.8438  24.3801
 20.9243  23.808
 21.0048  23.723
 21.0853  23.7125
 21.1658  23.6802
 21.2462  23.6678
 21.3268  23.6643
 21.4073  23.7173
 21.4878  23.8097
 21.5683  23.8426
 21.6487  23.798
 21.7293  23.8312
 21.8098  23.9423
 21.8903  23.9925
 21.9708  23.9793
 22.0512  24.104
 22.1318  24.2018
 22.2123  24.1492
 22.2928  24.0898
 22.3733  24.432
 22.4538  24.4565
 22.5343  24.6464
 22.6148  24.7949
 22.6953  24.9394
 22.7758  25.0442
 22.8563  25.3016
 22.9367  25.8178
 22.9943  26.0627

File: Data_0126.chi
F:\20151113_APS_34IDE\\Brian\Particle1\OCV\Data_0126.tif
2-Theta Angle (Degrees)
Intensity
       2000
 0.07475  0.0000000E+00
 0.15525  0.0000000E+00
 0.23575  0.0000000E+00
 0.31625  0.0000000E+00
 0.39675  0.0000000E+00
 0.47725  0.0000000E+00
 0.55775  0.0000000E+00
 0.63825  0.0000000E+00
 0.71875  0.0000000E+00
 0.79925  0.0000000E+00
 0.87975  0.0000000E+00
 0.96025  0.0000000E+00
 1.04075  0.0000000E+00
 1.12125  0.0000000E+00
 1.20175  0.0000000E+00
 1.28225  0.0000000E+00
 1.36275  0.0000000E+00
 1.44325  0.0000000E+00
 1.52375  0.0000000E+00
 1.60425  0.0000000E+00
 1.68475  0.0000000E+00
 1.76525  0.0000000E+00
 1.84575  0.0000000E+00
 1.92625  0.0000000E+00
 2.00675  0.0000000E+00
 2.08725  0.0000000E+00
 2.16775  0.0000000E+00
 2.24825  0.0000000E+00
 2.32875  0.0000000E+00
 2.40925  0.0000000E+00
 2.48975  0.0000000E+00
 2.57025  0.0000000E+00
 2.65075  0.0000000E+00
 2.73125  0.0000000E+00
 2.81175  0.0000000E+00
 2.89225  35.9736
 2.97275  35.4313
 3.05325  35.2415
 3.13375  35.6529
 3.21425  35.6598
 3.29475  34.8801
 3.37525  35.3273
 3.45575  34.5524
 3.53625  34.269
 3.61675  33.4188
 3.69725  33.4725
 3.77775  33.1883
 3.85825  32.3295
 3.93875  32.4056
 4.01925  32.7341
 4.09975  32.797
 4.18025  32.4319
 4.26075  32.2817
 4.34125  32.3874
 4.42175  32.6396
 4.50225  32.7015
 4.58275  32.055
 4.66325  32.544
 4.74375  32.4102
 4.82425  32.51
 4.90475  33.1862
 4.98525  33.0141
 5.06575  33.6921
 5.14625  33.4745
 5.22675  33.9758
 5.30725  34.4924
 5.38775  34.3203
 5.46825  34.6423
 5.54875  35.5648
 5.62925  35.2442
 5.70975  35.4725
 5.79025  35.8329
 5.87075  36.6004
 5.95125  52.0139
 6.03175  43.4169
 6.11225  37.2867
 6.19275  37.3202
 6.27325  37.4932
 6.35375  38.1513
 6.43425  38.5022
 6.51475  39.1759
 6.59525  39.3784
 6.67575  40.245
 6.75625  40.7427
 6.83675  41.4621
 6.91725  41.9632
 6.99775  42.2403
 7.07825  42.7223
 7.15875  43.1578
 7.23925  43.8963
 7.31975  43.6113
 7.40025  43.8019
 7.48075  44.1887
 7.56125  44.715
 7.64175  44.4827
 7.72225  44.1333
 7.80275  44.0722
 7.88325  44.064
 7.96375  43.7425
 8.04425  43.0296
 8.12475  42.7749
 8.20525  42.0273
 8.28575  40.9914
 8.36625  39.8499
 8.44675  38.679
 8.52725  37.3779
 8.60775  36.2228
 8.68825  35.3446
 8.76875  33.8241
 8.84925  32.5717
 8.92975  31.7857
 9.01025  30.583
 9.09075  29.7595
 9.17125  28.8884
 9.25175  27.9831
 9.33225  27.3675
 9.41275  26.9081
 9.49325  26.1607
 9.57375  25.6571
 9.65425  25.5864
 9.73475  25.203
 9.81525  24.8343
 9.89575  24.502
 9.97625  24.4325
 10.0567  24.143
 10.1373  23.9107
 10.2178  23.6527
 10.2982  23.3417
 10.3788  23.4333
 10.4593  23.2534
 10.5397  23.0958
 10.6203  23.0071
 10.7007  22.7431
 10.7813  22.7573
 10.8618  22.6555
 10.9422  22.767
 11.0228  22.4921
 11.1033  22.4156
 11.1837  22.2866
 11.2643  22.3314
 11.3447  22.3485
 11.4253  22.4927
 11.5058  22.7464
 11.5862  26.4507
 11.6668  23.033
 11.7473  22.3651
 11.8277  22.3423
 11.9083  22.3737
 11.9887  22.6637
 12.0693  23.5136
 12.1498  23.2474
 12.2302  22.3543
 12.3108  22.5416
 12.3913  22.4656
 12.4718  22.4067
 12.5523  22.5834
 12.6328  22.7309
 12.7133  22.7925
 12.7938  22.8901
 12.8742  23.1542
 12.9548  23.6958
 13.0353  23.9969
 13.1158  24.5958
 13.1963  25.3992
 13.2768  26.3648
 13.3573  27.6124
 13.4378  28.3965
 13.5183  29.1012
 13.5988  29.4596
 13.6793  29.6094
 13.7598  29.4213
 13.8403  28.9485
 13.9208  30.9865
 14.0013  29.7557
 14.0818  27.4461
 14.1623  26.9825
 14.2428  26.4133
 14.3233  25.9249
 14.4038  25.9022
 14.4843  25.535
 14.5648  25.4248
 14.6453  25.163
 14.7258  25.0763
 14.8063  24.7925
 14.8868  24.6921
 14.9673  24.6671
 15.0478  24.6767
 15.1283  24.5731
 15.2088  25.1663
 15.2892  24.5113
 15.3698  24.4267
 15.4503  24.3153
 15.5308  24.2658
 15.6113  24.387
 15.6918  24.4916
 15.7723  24.563
 15.8528  24.4278
 15.9332  24.5261
 16.0138  24.4651
 16.0943  24.6697
 16.1748  24.8052
 16.2553  26.6279
 16.3358  24.9225
 16.4163  24.6303
 16.4967  24.5697
 16.5773  24.4412
 16.6578  24.3995
 16.7383  24.3536
 16.8188  24.2073
 16.8992  24.1767
 16.9798  24.0598
 17.0603  23.9975
 17.1408  24.0663
 17.2213  23.9973
 17.3017  23.9068
 17.3823  23.8993
 17.4628  23.7556
 17.5433  23.7823
 17.6238  23.7967
 17.7042  23.6135
 17.7847  23.6106
 17.8653  23.635
 17.9458  23.8152
 18.0263  24.6998
 18.1068  29.1441
 18.1872  24.7161
 18.2678  23.7651
 18.3483  23.4818
 18.4288  23.5257
 18.5093  23.4163
 18.5897  23.3671
 18.6703  23.3637
 18.7508  23.2712
 18.8313  23.2551
 18.9118  23.1934
 18.9922  23.3241
 19.0727  23.4462
 19.1533  23.4719
 19.2338  23.4456
 19.3143  23.4085
 19.3948  23.5318
 19.4752  23.5975
 19.5558  23.6386
 19.6363  23.8661
 19.7168  25.52
 19.7973  24.8108
 19.8777  25.8049
 19.9582  23.9428
 20.0388  23.6684
 20.1193  23.6192
 20.1998  23.5711
 20.2803  23.509
 20.3607  23.5277
 20.4413  23.522
 20.5218  23.5147
 20.6023  23.6906
 20.6828  24.1021
 20.7632  24.7176
 20.8438  23.8323
 20.9243  23.8109
 21.0048  23.6986
 21.0853  23.7596
 21.1658  23.6538
 21.2462  23.6638
 21.3268  23.7234
 21.4073  23.6896
 21.4878  23.901
 21.5683  23.9154
 21.6487  23.8662
 21.7293  23.9177
 21.8098  23.967
 21.8903  24.0431
 21.9708  24.0552
 22.0512  24.1227
 22.1318  24.1992
 22.2123  24.1142
 22.2928  24.3033
 22.3733  24.3639
 22.4538  24.4199
 22.5343  24.5502
 22.6148  24.8898
 22.6953  24.9248
 22.7758  24.9944
 22.8563  25.4245
 22.9367  25.7461
 22.9943  26.0957