Folder: scimap-tests/test-data-xrd/xrd-map-34-ID-E (part 7)

File: Data_0028.chi
F:\20151113_APS_34IDE\\Brian\Particle1\OCV\Data_0028.tif
2-Theta Angle (Degrees)
Intensity
       2000
 0.07475  0.0000000E+00
 0.15525  0.0000000E+00
 0.23575  0.0000000E+00
 0.31625  0.0000000E+00
 0.39675  0.0000000E+00
 0.47725  0.0000000E+00
 0.55775  0.0000000E+00
 0.63825  0.0000000E+00
 0.71875  0.0000000E+00
 0.79925  0.0000000E+00
 0.87975  0.0000000E+00
 0.96025  0.0000000E+00
 1.04075  0.0000000E+00
 1.12125  0.0000000E+00
 1.20175  0.0000000E+00
 1.28225  0.0000000E+00
 1.36275  0.0000000E+00
 1.44325  0.0000000E+00
 1.52375  0.0000000E+00
 1.60425  0.0000000E+00
 1.68475  0.0000000E+00
 1.76525  0.0000000E+00
 1.84575  0.0000000E+00
 1.92625  0.0000000E+00
 2.00675  0.0000000E+00
 2.08725  0.0000000E+00
 2.16775  0.0000000E+00
 2.24825  0.0000000E+00
 2.32875  0.0000000E+00
 2.40925  0.0000000E+00
 2.48975  0.0000000E+00
 2.57025  0.0000000E+00
 2.65075  0.0000000E+00
 2.73125  0.0000000E+00
 2.81175  0.0000000E+00
 2.89225  34.2636
 2.97275  35.9805
 3.05325  35.84
 3.13375  34.8337
 3.21425  36.0765
 3.29475  34.7032
 3.37525  34.2023
 3.45575  34.1201
 3.53625  33.4787
 3.61675  34.0551
 3.69725  33.6974
 3.77775  33.1832
 3.85825  33.2129
 3.93875  32.7599
 4.01925  33.3946
 4.09975  32.825
 4.18025  32.4259
 4.26075  32.4392
 4.34125  32.5918
 4.42175  32.9675
 4.50225  33.117
 4.58275  32.8432
 4.66325  33.0133
 4.74375  32.913
 4.82425  32.9357
 4.90475  32.9845
 4.98525  33.4587
 5.06575  33.4751
 5.14625  33.8178
 5.22675  34.2236
 5.30725  34.5689
 5.38775  35.0841
 5.46825  35.0229
 5.54875  35.3247
 5.62925  35.5848
 5.70975  35.9733
 5.79025  36.3975
 5.87075  37.1743
 5.95125  47.2974
 6.03175  46.0277
 6.11225  37.9071
 6.19275  37.6824
 6.27325  37.9598
 6.35375  38.5957
 6.43425  39.0181
 6.51475  39.5675
 6.59525  39.7201
 6.67575  40.5566
 6.75625  41.2015
 6.83675  41.7272
 6.91725  42.0922
 6.99775  42.7554
 7.07825  43.4938
 7.15875  43.9349
 7.23925  44.0705
 7.31975  44.1722
 7.40025  44.2775
 7.48075  44.9169
 7.56125  44.6841
 7.64175  44.9959
 7.72225  44.9769
 7.80275  44.9841
 7.88325  44.6768
 7.96375  44.2283
 8.04425  43.7391
 8.12475  43.0405
 8.20525  42.3716
 8.28575  41.4056
 8.36625  40.2431
 8.44675  39.0821
 8.52725  37.9837
 8.60775  36.7054
 8.68825  35.4063
 8.76875  34.127
 8.84925  33.2771
 8.92975  32.0352
 9.01025  31.079
 9.09075  30.0741
 9.17125  29.4471
 9.25175  28.7202
 9.33225  27.8474
 9.41275  27.3286
 9.49325  26.8802
 9.57375  26.2363
 9.65425  25.7928
 9.73475  25.4453
 9.81525  25.2484
 9.89575  24.8914
 9.97625  24.7274
 10.0567  24.5004
 10.1373  24.2396
 10.2178  24.0927
 10.2982  23.7391
 10.3788  23.4991
 10.4593  23.5975
 10.5397  23.4807
 10.6203  23.1149
 10.7007  23.1737
 10.7813  23.1686
 10.8618  23.1287
 10.9422  22.8953
 11.0228  22.8659
 11.1033  22.8634
 11.1837  22.8215
 11.2643  22.7198
 11.3447  22.7637
 11.4253  23.2047
 11.5058  23.3459
 11.5862  30.0114
 11.6668  23.9311
 11.7473  22.9255
 11.8277  22.7813
 11.9083  22.9233
 11.9887  24.3088
 12.0693  24.316
 12.1498  24.8689
 12.2302  22.8625
 12.3108  22.9508
 12.3913  22.9174
 12.4718  22.8968
 12.5523  22.9607
 12.6328  23.0906
 12.7133  23.169
 12.7938  23.4167
 12.8742  23.6776
 12.9548  23.9646
 13.0353  24.4543
 13.1158  24.9726
 13.1963  25.9812
 13.2768  26.9329
 13.3573  27.924
 13.4378  28.9367
 13.5183  29.8554
 13.5988  30.1899
 13.6793  30.1876
 13.7598  30.0781
 13.8403  30.3444
 13.9208  41.3803
 14.0013  40.0629
 14.0818  28.5797
 14.1623  27.5916
 14.2428  26.9525
 14.3233  26.6641
 14.4038  26.2938
 14.4843  26.0289
 14.5648  25.833
 14.6453  25.6764
 14.7258  25.5543
 14.8063  25.3357
 14.8868  25.2917
 14.9673  25.1394
 15.0478  25.249
 15.1283  25.8876
 15.2088  27.4086
 15.2892  25.0238
 15.3698  24.8539
 15.4503  24.8026
 15.5308  24.6889
 15.6113  24.7904
 15.6918  24.7842
 15.7723  24.8399
 15.8528  24.7966
 15.9332  24.7719
 16.0138  24.764
 16.0943  24.8832
 16.1748  25.0617
 16.2553  25.9438
 16.3358  25.1746
 16.4163  24.9422
 16.4967  24.9686
 16.5773  24.8236
 16.6578  24.8437
 16.7383  24.7591
 16.8188  24.6312
 16.8992  24.6271
 16.9798  24.5255
 17.0603  24.3637
 17.1408  24.5143
 17.2213  24.5837
 17.3017  24.2958
 17.3823  24.3155
 17.4628  24.1006
 17.5433  24.2076
 17.6238  24.0827
 17.7042  24.1294
 17.7847  24.1382
 17.8653  24.1387
 17.9458  24.2099
 18.0263  25.1921
 18.1068  28.2494
 18.1872  24.8696
 18.2678  24.0486
 18.3483  23.8139
 18.4288  23.9153
 18.5093  23.8131
 18.5897  23.5937
 18.6703  23.6956
 18.7508  23.7112
 18.8313  23.6779
 18.9118  23.6969
 18.9922  23.7531
 19.0727  23.9361
 19.1533  23.752
 19.2338  23.7816
 19.3143  23.7581
 19.3948  23.8991
 19.4752  24.003
 19.5558  23.9474
 19.6363  24.8139
 19.7168  29.3257
 19.7973  25.8519
 19.8777  27.0318
 19.9582  24.272
 20.0388  23.9567
 20.1193  24.0247
 20.1998  24.024
 20.2803  24.016
 20.3607  24.0381
 20.4413  24.0483
 20.5218  23.9752
 20.6023  24.2281
 20.6828  24.6967
 20.7632  28.9676
 20.8438  24.8638
 20.9243  24.2688
 21.0048  24.1243
 21.0853  24.0765
 21.1658  24.2912
 21.2462  24.146
 21.3268  24.1034
 21.4073  24.0828
 21.4878  24.1925
 21.5683  24.211
 21.6487  24.3266
 21.7293  24.4194
 21.8098  24.5308
 21.8903  24.3723
 21.9708  24.4983
 22.0512  24.4262
 22.1318  24.5826
 22.2123  24.5262
 22.2928  24.5772
 22.3733  24.7734
 22.4538  24.7533
 22.5343  24.9097
 22.6148  24.9865
 22.6953  25.2845
 22.7758  25.4402
 22.8563  25.7242
 22.9367  26.1905
 22.9943  26.5469

File: Data_0029.chi
F:\20151113_APS_34IDE\\Brian\Particle1\OCV\Data_0029.tif
2-Theta Angle (Degrees)
Intensity
       2000
 0.07475  0.0000000E+00
 0.15525  0.0000000E+00
 0.23575  0.0000000E+00
 0.31625  0.0000000E+00
 0.39675  0.0000000E+00
 0.47725  0.0000000E+00
 0.55775  0.0000000E+00
 0.63825  0.0000000E+00
 0.71875  0.0000000E+00
 0.79925  0.0000000E+00
 0.87975  0.0000000E+00
 0.96025  0.0000000E+00
 1.04075  0.0000000E+00
 1.12125  0.0000000E+00
 1.20175  0.0000000E+00
 1.28225  0.0000000E+00
 1.36275  0.0000000E+00
 1.44325  0.0000000E+00
 1.52375  0.0000000E+00
 1.60425  0.0000000E+00
 1.68475  0.0000000E+00
 1.76525  0.0000000E+00
 1.84575  0.0000000E+00
 1.92625  0.0000000E+00
 2.00675  0.0000000E+00
 2.08725  0.0000000E+00
 2.16775  0.0000000E+00
 2.24825  0.0000000E+00
 2.32875  0.0000000E+00
 2.40925  0.0000000E+00
 2.48975  0.0000000E+00
 2.57025  0.0000000E+00
 2.65075  0.0000000E+00
 2.73125  0.0000000E+00
 2.81175  0.0000000E+00
 2.89225  35.9445
 2.97275  35.4155
 3.05325  35.9473
 3.13375  36.8326
 3.21425  36.066
 3.29475  34.7461
 3.37525  34.24
 3.45575  34.5133
 3.53625  34.8125
 3.61675  33.5628
 3.69725  34.0087
 3.77775  33.5688
 3.85825  32.6258
 3.93875  33.3814
 4.01925  33.0914
 4.09975  32.9814
 4.18025  32.3776
 4.26075  32.635
 4.34125  32.681
 4.42175  32.1729
 4.50225  32.6936
 4.58275  32.6813
 4.66325  32.9896
 4.74375  33.0063
 4.82425  32.9238
 4.90475  33.0644
 4.98525  33.0804
 5.06575  33.508
 5.14625  34.1555
 5.22675  34.1625
 5.30725  34.5907
 5.38775  34.7909
 5.46825  34.8462
 5.54875  35.517
 5.62925  35.5721
 5.70975  36.1001
 5.79025  36.089
 5.87075  36.5435
 5.95125  41.3908
 6.03175  39.5624
 6.11225  37.1317
 6.19275  37.3713
 6.27325  37.823
 6.35375  38.2733
 6.43425  38.812
 6.51475  39.415
 6.59525  40.0336
 6.67575  40.3511
 6.75625  41.1194
 6.83675  41.695
 6.91725  42.2811
 6.99775  42.4533
 7.07825  42.9
 7.15875  43.4922
 7.23925  43.8356
 7.31975  44.2136
 7.40025  44.4607
 7.48075  44.5625
 7.56125  44.9121
 7.64175  44.7437
 7.72225  44.7217
 7.80275  44.6308
 7.88325  44.6581
 7.96375  44.0491
 8.04425  43.9664
 8.12475  42.7668
 8.20525  42.3302
 8.28575  41.2557
 8.36625  40.413
 8.44675  39.2298
 8.52725  37.9085
 8.60775  36.6774
 8.68825  35.6234
 8.76875  34.5711
 8.84925  33.0132
 8.92975  32.0694
 9.01025  31.0029
 9.09075  30.3698
 9.17125  29.4765
 9.25175  28.5595
 9.33225  27.8085
 9.41275  27.1135
 9.49325  26.8258
 9.57375  26.443
 9.65425  25.8028
 9.73475  25.787
 9.81525  25.2173
 9.89575  24.9528
 9.97625  25.8341
 10.0567  24.5433
 10.1373  24.302
 10.2178  24.0561
 10.2982  24.0101
 10.3788  23.6302
 10.4593  23.5805
 10.5397  23.4968
 10.6203  23.3625
 10.7007  23.12
 10.7813  23.0594
 10.8618  23.0003
 10.9422  22.8997
 11.0228  22.8282
 11.1033  22.8265
 11.1837  22.704
 11.2643  22.7807
 11.3447  22.8533
 11.4253  23.3736
 11.5058  23.3402
 11.5862  30.7279
 11.6668  23.994
 11.7473  23.0119
 11.8277  22.9598
 11.9083  22.973
 11.9887  24.0129
 12.0693  31.1268
 12.1498  27.6293
 12.2302  23.2379
 12.3108  22.9269
 12.3913  22.9801
 12.4718  22.9752
 12.5523  22.8855
 12.6328  23.0454
 12.7133  23.2724
 12.7938  23.161
 12.8742  23.6834
 12.9548  24.0759
 13.0353  24.3335
 13.1158  25.2094
 13.1963  25.9479
 13.2768  26.8746
 13.3573  27.7896
 13.4378  28.9077
 13.5183  29.7443
 13.5988  30.1021
 13.6793  30.3298
 13.7598  30.0631
 13.8403  30.4408
 13.9208  44.2831
 14.0013  37.2855
 14.0818  28.5227
 14.1623  27.5461
 14.2428  26.9
 14.3233  26.5657
 14.4038  26.1429
 14.4843  25.9165
 14.5648  25.8637
 14.6453  25.5735
 14.7258  25.5042
 14.8063  25.372
 14.8868  25.221
 14.9673  25.1148
 15.0478  25.2095
 15.1283  25.5983
 15.2088  28.6058
 15.2892  25.0417
 15.3698  24.8652
 15.4503  24.7286
 15.5308  24.7753
 15.6113  24.6801
 15.6918  24.8035
 15.7723  24.8246
 15.8528  24.8349
 15.9332  24.9126
 16.0138  24.7961
 16.0943  24.9598
 16.1748  25.0073
 16.2553  25.8899
 16.3358  25.3558
 16.4163  25.0614
 16.4967  24.9216
 16.5773  24.8198
 16.6578  24.9035
 16.7383  24.8986
 16.8188  24.5441
 16.8992  24.5813
 16.9798  24.614
 17.0603  24.3903
 17.1408  24.4021
 17.2213  24.5557
 17.3017  24.3735
 17.3823  24.2557
 17.4628  24.2213
 17.5433  24.1351
 17.6238  24.0236
 17.7042  24.0132
 17.7847  24.0572
 17.8653  23.9564
 17.9458  23.9229
 18.0263  24.8814
 18.1068  24.9533
 18.1872  24.0883
 18.2678  23.7865
 18.3483  23.8275
 18.4288  23.7551
 18.5093  23.753
 18.5897  23.75
 18.6703  23.7958
 18.7508  23.7526
 18.8313  23.8001
 18.9118  23.7398
 18.9922  23.5309
 19.0727  23.6734
 19.1533  23.7578
 19.2338  23.7198
 19.3143  23.8917
 19.3948  23.8531
 19.4752  23.8672
 19.5558  23.8404
 19.6363  24.1156
 19.7168  25.7427
 19.7973  24.655
 19.8777  26.2373
 19.9582  24.1386
 20.0388  23.8868
 20.1193  23.9308
 20.1998  23.9501
 20.2803  23.9146
 20.3607  23.871
 20.4413  23.936
 20.5218  23.9633
 20.6023  24.1506
 20.6828  24.4897
 20.7632  27.2928
 20.8438  24.5115
 20.9243  24.2706
 21.0048  24.0371
 21.0853  23.9926
 21.1658  23.9849
 21.2462  24.0684
 21.3268  24.2275
 21.4073  24.077
 21.4878  24.1273
 21.5683  23.9633
 21.6487  24.2523
 21.7293  24.2316
 21.8098  24.3531
 21.8903  24.3706
 21.9708  24.3567
 22.0512  24.4763
 22.1318  24.5025
 22.2123  24.5663
 22.2928  25.0055
 22.3733  24.7334
 22.4538  24.8193
 22.5343  25.033
 22.6148  25.3723
 22.6953  25.4024
 22.7758  25.671
 22.8563  25.9247
 22.9367  26.4961
 22.9943  28.8172

File: Data_0030.chi
F:\20151113_APS_34IDE\\Brian\Particle1\OCV\Data_0030.tif
2-Theta Angle (Degrees)
Intensity
       2000
 0.07475  0.0000000E+00
 0.15525  0.0000000E+00
 0.23575  0.0000000E+00
 0.31625  0.0000000E+00
 0.39675  0.0000000E+00
 0.47725  0.0000000E+00
 0.55775  0.0000000E+00
 0.63825  0.0000000E+00
 0.71875  0.0000000E+00
 0.79925  0.0000000E+00
 0.87975  0.0000000E+00
 0.96025  0.0000000E+00
 1.04075  0.0000000E+00
 1.12125  0.0000000E+00
 1.20175  0.0000000E+00
 1.28225  0.0000000E+00
 1.36275  0.0000000E+00
 1.44325  0.0000000E+00
 1.52375  0.0000000E+00
 1.60425  0.0000000E+00
 1.68475  0.0000000E+00
 1.76525  0.0000000E+00
 1.84575  0.0000000E+00
 1.92625  0.0000000E+00
 2.00675  0.0000000E+00
 2.08725  0.0000000E+00
 2.16775  0.0000000E+00
 2.24825  0.0000000E+00
 2.32875  0.0000000E+00
 2.40925  0.0000000E+00
 2.48975  0.0000000E+00
 2.57025  0.0000000E+00
 2.65075  0.0000000E+00
 2.73125  0.0000000E+00
 2.81175  0.0000000E+00
 2.89225  35.1876
 2.97275  35.6791
 3.05325  35.1285
 3.13375  35.8635
 3.21425  36.1959
 3.29475  35.496
 3.37525  35.3459
 3.45575  34.8904
 3.53625  34.5175
 3.61675  33.7219
 3.69725  33.767
 3.77775  33.4507
 3.85825  33.4273
 3.93875  32.6317
 4.01925  33.3035
 4.09975  33.1401
 4.18025  32.7311
 4.26075  32.7268
 4.34125  33.0676
 4.42175  33.0352
 4.50225  33.0052
 4.58275  32.7394
 4.66325  33.1625
 4.74375  32.8717
 4.82425  32.9589
 4.90475  33.4181
 4.98525  33.4621
 5.06575  33.8117
 5.14625  34.1615
 5.22675  34.4363
 5.30725  34.1605
 5.38775  34.638
 5.46825  34.8699
 5.54875  35.1089
 5.62925  35.4954
 5.70975  35.6838
 5.79025  35.7514
 5.87075  36.6234
 5.95125  40.483
 6.03175  39.7517
 6.11225  37.2005
 6.19275  37.309
 6.27325  37.6628
 6.35375  38.1634
 6.43425  39.1446
 6.51475  39.1897
 6.59525  40.0326
 6.67575  40.6154
 6.75625  41.0558
 6.83675  41.5072
 6.91725  42.2635
 6.99775  42.7256
 7.07825  43.5989
 7.15875  43.4827
 7.23925  43.6273
 7.31975  44.0465
 7.40025  44.5612
 7.48075  44.6768
 7.56125  44.7941
 7.64175  44.7505
 7.72225  44.8786
 7.80275  44.8178
 7.88325  44.3442
 7.96375  43.9768
 8.04425  43.782
 8.12475  43.3632
 8.20525  42.3098
 8.28575  41.2628
 8.36625  40.2901
 8.44675  39.3376
 8.52725  37.908
 8.60775  36.6311
 8.68825  35.5384
 8.76875  34.2824
 8.84925  33.2117
 8.92975  32.0754
 9.01025  30.8534
 9.09075  30.108
 9.17125  29.3321
 9.25175  28.379
 9.33225  27.9471
 9.41275  27.2057
 9.49325  26.6154
 9.57375  26.1395
 9.65425  25.792
 9.73475  25.3889
 9.81525  24.981
 9.89575  24.9422
 9.97625  24.493
 10.0567  24.2023
 10.1373  24.0591
 10.2178  24.1514
 10.2982  23.8135
 10.3788  23.4773
 10.4593  23.3426
 10.5397  23.3922
 10.6203  22.9856
 10.7007  22.9737
 10.7813  22.9884
 10.8618  22.8601
 10.9422  22.79
 11.0228  22.8101
 11.1033  22.7011
 11.1837  22.6588
 11.2643  22.6878
 11.3447  22.6152
 11.4253  23.0378
 11.5058  22.8984
 11.5862  25.9327
 11.6668  22.9555
 11.7473  22.6369
 11.8277  22.6074
 11.9083  22.7562
 11.9887  23.5258
 12.0693  30.469
 12.1498  26.6023
 12.2302  22.8671
 12.3108  22.8997
 12.3913  22.784
 12.4718  22.8241
 12.5523  22.9978
 12.6328  22.9078
 12.7133  22.968
 12.7938  23.1476
 12.8742  23.4589
 12.9548  23.8689
 13.0353  24.3006
 13.1158  24.9458
 13.1963  25.827
 13.2768  26.8319
 13.3573  27.9496
 13.4378  28.907
 13.5183  29.5952
 13.5988  29.9886
 13.6793  30.0726
 13.7598  29.8892
 13.8403  30.2162
 13.9208  34.6485
 14.0013  34.4434
 14.0818  28.2633
 14.1623  27.3384
 14.2428  26.6077
 14.3233  26.4731
 14.4038  26.1266
 14.4843  25.7972
 14.5648  25.6769
 14.6453  25.4833
 14.7258  25.3069
 14.8063  24.9894
 14.8868  25.0361
 14.9673  25.0054
 15.0478  25.0414
 15.1283  25.1381
 15.2088  26.4059
 15.2892  24.9745
 15.3698  24.7932
 15.4503  24.6751
 15.5308  24.6019
 15.6113  24.6949
 15.6918  24.731
 15.7723  24.6078
 15.8528  24.8962
 15.9332  24.7528
 16.0138  24.8806
 16.0943  24.8878
 16.1748  24.8619
 16.2553  25.466
 16.3358  25.0322
 16.4163  24.6951
 16.4967  24.749
 16.5773  24.6709
 16.6578  24.7788
 16.7383  24.6273
 16.8188  24.4744
 16.8992  24.4179
 16.9798  24.4065
 17.0603  24.2724
 17.1408  24.4049
 17.2213  24.3173
 17.3017  24.2212
 17.3823  24.2543
 17.4628  24.0595
 17.5433  23.9922
 17.6238  24.0115
 17.7042  23.878
 17.7847  24.0017
 17.8653  23.8355
 17.9458  24.1245
 18.0263  25.3152
 18.1068  26.0472
 18.1872  23.9105
 18.2678  23.8185
 18.3483  23.7597
 18.4288  23.7728
 18.5093  23.5655
 18.5897  23.6298
 18.6703  23.5759
 18.7508  23.5395
 18.8313  23.5268
 18.9118  23.5724
 18.9922  23.6224
 19.0727  23.6268
 19.1533  23.5914
 19.2338  23.6203
 19.3143  23.7536
 19.3948  23.8843
 19.4752  23.7227
 19.5558  23.8912
 19.6363  24.3749
 19.7168  26.8006
 19.7973  25.5753
 19.8777  28.9259
 19.9582  24.2099
 20.0388  23.9651
 20.1193  23.8682
 20.1998  23.8878
 20.2803  23.7997
 20.3607  23.8558
 20.4413  23.9081
 20.5218  23.7807
 20.6023  24.0225
 20.6828  24.2826
 20.7632  25.3851
 20.8438  24.1672
 20.9243  24.0303
 21.0048  23.9619
 21.0853  23.9988
 21.1658  23.9184
 21.2462  23.8565
 21.3268  23.9742
 21.4073  24.0481
 21.4878  24.0103
 21.5683  24.0435
 21.6487  24.0374
 21.7293  24.0616
 21.8098  24.3203
 21.8903  24.1183
 21.9708  24.3073
 22.0512  24.4168
 22.1318  24.3947
 22.2123  24.4147
 22.2928  24.5086
 22.3733  24.6041
 22.4538  24.6834
 22.5343  24.8563
 22.6148  24.9946
 22.6953  25.1143
 22.7758  25.2818
 22.8563  25.4126
 22.9367  26.0485
 22.9943  26.5336

File: Data_0031.chi
F:\20151113_APS_34IDE\\Brian\Particle1\OCV\Data_0031.tif
2-Theta Angle (Degrees)
Intensity
       2000
 0.07475  0.0000000E+00
 0.15525  0.0000000E+00
 0.23575  0.0000000E+00
 0.31625  0.0000000E+00
 0.39675  0.0000000E+00
 0.47725  0.0000000E+00
 0.55775  0.0000000E+00
 0.63825  0.0000000E+00
 0.71875  0.0000000E+00
 0.79925  0.0000000E+00
 0.87975  0.0000000E+00
 0.96025  0.0000000E+00
 1.04075  0.0000000E+00
 1.12125  0.0000000E+00
 1.20175  0.0000000E+00
 1.28225  0.0000000E+00
 1.36275  0.0000000E+00
 1.44325  0.0000000E+00
 1.52375  0.0000000E+00
 1.60425  0.0000000E+00
 1.68475  0.0000000E+00
 1.76525  0.0000000E+00
 1.84575  0.0000000E+00
 1.92625  0.0000000E+00
 2.00675  0.0000000E+00
 2.08725  0.0000000E+00
 2.16775  0.0000000E+00
 2.24825  0.0000000E+00
 2.32875  0.0000000E+00
 2.40925  0.0000000E+00
 2.48975  0.0000000E+00
 2.57025  0.0000000E+00
 2.65075  0.0000000E+00
 2.73125  0.0000000E+00
 2.81175  0.0000000E+00
 2.89225  35.4157
 2.97275  35.608
 3.05325  37.8562
 3.13375  33.862
 3.21425  36.0402
 3.29475  35.8532
 3.37525  34.976
 3.45575  34.643
 3.53625  34.6128
 3.61675  33.8167
 3.69725  33.5446
 3.77775  33.285
 3.85825  32.99
 3.93875  32.4291
 4.01925  32.5387
 4.09975  32.7163
 4.18025  32.6873
 4.26075  32.7221
 4.34125  32.989
 4.42175  33.1794
 4.50225  33.4579
 4.58275  33.2956
 4.66325  33.5026
 4.74375  32.7867
 4.82425  33.0651
 4.90475  33.3027
 4.98525  33.3511
 5.06575  33.5697
 5.14625  34.0508
 5.22675  34.5344
 5.30725  34.6483
 5.38775  35.0572
 5.46825  34.9099
 5.54875  35.5072
 5.62925  35.5158
 5.70975  35.9585
 5.79025  36.2997
 5.87075  37.5011
 5.95125  53.4296
 6.03175  49.1358
 6.11225  37.8499
 6.19275  37.9574
 6.27325  38.1626
 6.35375  38.5519
 6.43425  39.0061
 6.51475  39.9302
 6.59525  40.1658
 6.67575  40.7258
 6.75625  41.4504
 6.83675  41.7982
 6.91725  42.2029
 6.99775  42.469
 7.07825  43.2753
 7.15875  43.5339
 7.23925  44.2583
 7.31975  44.4694
 7.40025  44.5303
 7.48075  44.5271
 7.56125  44.9429
 7.64175  44.5837
 7.72225  44.5704
 7.80275  44.5455
 7.88325  44.5785
 7.96375  44.2381
 8.04425  43.7337
 8.12475  43.093
 8.20525  42.2999
 8.28575  41.2726
 8.36625  40.4207
 8.44675  39.1358
 8.52725  38.1461
 8.60775  36.7954
 8.68825  35.4446
 8.76875  34.2386
 8.84925  33.2457
 8.92975  31.8867
 9.01025  30.9958
 9.09075  30.0769
 9.17125  29.0161
 9.25175  28.3786
 9.33225  27.6965
 9.41275  26.951
 9.49325  26.57
 9.57375  25.9405
 9.65425  25.7227
 9.73475  25.3097
 9.81525  25.0731
 9.89575  24.6593
 9.97625  24.5582
 10.0567  24.2555
 10.1373  24.1029
 10.2178  24.0196
 10.2982  23.7139
 10.3788  23.5504
 10.4593  23.3861
 10.5397  23.2569
 10.6203  23.1591
 10.7007  23.1218
 10.7813  23.014
 10.8618  22.7369
 10.9422  22.7041
 11.0228  22.5431
 11.1033  22.6406
 11.1837  22.5487
 11.2643  22.512
 11.3447  22.4679
 11.4253  22.6962
 11.5058  22.8302
 11.5862  25.6761
 11.6668  23.2535
 11.7473  22.5386
 11.8277  22.6887
 11.9083  22.5575
 11.9887  23.9862
 12.0693  24.4213
 12.1498  23.6667
 12.2302  22.5337
 12.3108  22.6501
 12.3913  22.5876
 12.4718  22.6821
 12.5523  22.7779
 12.6328  22.925
 12.7133  22.9801
 12.7938  23.2004
 12.8742  23.4087
 12.9548  23.9297
 13.0353  24.3524
 13.1158  24.9415
 13.1963  25.6566
 13.2768  26.8234
 13.3573  27.9262
 13.4378  28.7133
 13.5183  29.3528
 13.5988  29.7627
 13.6793  29.8427
 13.7598  29.6637
 13.8403  29.2183
 13.9208  30.657
 14.0013  29.3552
 14.0818  27.7366
 14.1623  27.0865
 14.2428  26.7314
 14.3233  26.3843
 14.4038  26.0328
 14.4843  25.7817
 14.5648  25.5652
 14.6453  25.4301
 14.7258  25.2072
 14.8063  25.2537
 14.8868  25.1556
 14.9673  25.1628
 15.0478  25.065
 15.1283  25.9534
 15.2088  38.1701
 15.2892  25.603
 15.3698  24.8484
 15.4503  24.5832
 15.5308  24.7057
 15.6113  24.6842
 15.6918  24.6943
 15.7723  24.6332
 15.8528  24.6851
 15.9332  24.6976
 16.0138  24.7656
 16.0943  24.8631
 16.1748  24.9009
 16.2553  25.2719
 16.3358  24.9566
 16.4163  24.8665
 16.4967  24.6741
 16.5773  24.6904
 16.6578  24.6265
 16.7383  24.5656
 16.8188  24.5444
 16.8992  24.5839
 16.9798  24.2758
 17.0603  24.2343
 17.1408  24.2506
 17.2213  24.2264
 17.3017  24.1797
 17.3823  24.0502
 17.4628  23.9227
 17.5433  24.0094
 17.6238  23.9828
 17.7042  23.8382
 17.7847  23.7707
 17.8653  23.7353
 17.9458  23.7669
 18.0263  24.2987
 18.1068  27.2345
 18.1872  24.2755
 18.2678  23.7024
 18.3483  23.6295
 18.4288  23.6815
 18.5093  23.6614
 18.5897  23.6036
 18.6703  23.537
 18.7508  23.3767
 18.8313  23.6093
 18.9118  23.512
 18.9922  23.4481
 19.0727  23.6271
 19.1533  23.6768
 19.2338  23.458
 19.3143  23.5932
 19.3948  23.6605
 19.4752  23.6886
 19.5558  23.7089
 19.6363  24.0631
 19.7168  26.3364
 19.7973  24.7332
 19.8777  24.8913
 19.9582  23.8889
 20.0388  23.7013
 20.1193  23.6988
 20.1998  23.6929
 20.2803  23.6972
 20.3607  23.6849
 20.4413  23.7935
 20.5218  23.6952
 20.6023  23.8368
 20.6828  24.1748
 20.7632  25.1854
 20.8438  23.9527
 20.9243  23.8893
 21.0048  23.8061
 21.0853  23.8253
 21.1658  23.7914
 21.2462  23.8948
 21.3268  23.9379
 21.4073  23.9303
 21.4878  24.0097
 21.5683  23.8951
 21.6487  24.0677
 21.7293  24.0885
 21.8098  24.0319
 21.8903  24.1345
 21.9708  24.196
 22.0512  24.3237
 22.1318  24.3663
 22.2123  24.3303
 22.2928  24.3853
 22.3733  24.6174
 22.4538  24.5622
 22.5343  24.7129
 22.6148  24.9107
 22.6953  25.0499
 22.7758  25.3064
 22.8563  25.5767
 22.9367  25.9795
 22.9943  26.2746