Folder: scimap-tests/test-data-xrd/xrd-map-34-ID-E (part 32)

File: Data_0131.chi
F:\20151113_APS_34IDE\\Brian\Particle1\OCV\Data_0131.tif
2-Theta Angle (Degrees)
Intensity
       2000
 0.07475  0.0000000E+00
 0.15525  0.0000000E+00
 0.23575  0.0000000E+00
 0.31625  0.0000000E+00
 0.39675  0.0000000E+00
 0.47725  0.0000000E+00
 0.55775  0.0000000E+00
 0.63825  0.0000000E+00
 0.71875  0.0000000E+00
 0.79925  0.0000000E+00
 0.87975  0.0000000E+00
 0.96025  0.0000000E+00
 1.04075  0.0000000E+00
 1.12125  0.0000000E+00
 1.20175  0.0000000E+00
 1.28225  0.0000000E+00
 1.36275  0.0000000E+00
 1.44325  0.0000000E+00
 1.52375  0.0000000E+00
 1.60425  0.0000000E+00
 1.68475  0.0000000E+00
 1.76525  0.0000000E+00
 1.84575  0.0000000E+00
 1.92625  0.0000000E+00
 2.00675  0.0000000E+00
 2.08725  0.0000000E+00
 2.16775  0.0000000E+00
 2.24825  0.0000000E+00
 2.32875  0.0000000E+00
 2.40925  0.0000000E+00
 2.48975  0.0000000E+00
 2.57025  0.0000000E+00
 2.65075  0.0000000E+00
 2.73125  0.0000000E+00
 2.81175  0.0000000E+00
 2.89225  34.6601
 2.97275  35.7183
 3.05325  36.0152
 3.13375  35.5237
 3.21425  34.1709
 3.29475  35.3103
 3.37525  34.8226
 3.45575  34.1062
 3.53625  33.9789
 3.61675  33.8677
 3.69725  33.1064
 3.77775  33.137
 3.85825  32.4832
 3.93875  32.8452
 4.01925  32.5927
 4.09975  32.2818
 4.18025  32.5874
 4.26075  32.3062
 4.34125  32.5059
 4.42175  32.6181
 4.50225  32.6579
 4.58275  32.5634
 4.66325  33.0493
 4.74375  32.7486
 4.82425  32.5485
 4.90475  32.6767
 4.98525  33.0208
 5.06575  33.4448
 5.14625  33.4321
 5.22675  33.98
 5.30725  34.0111
 5.38775  34.3754
 5.46825  34.5662
 5.54875  34.724
 5.62925  35.3519
 5.70975  35.157
 5.79025  35.539
 5.87075  35.4346
 5.95125  36.1552
 6.03175  36.489
 6.11225  36.5637
 6.19275  36.7732
 6.27325  37.3302
 6.35375  38.0831
 6.43425  38.8034
 6.51475  39.0783
 6.59525  39.5607
 6.67575  40.3428
 6.75625  40.7109
 6.83675  41.2949
 6.91725  41.8825
 6.99775  41.9896
 7.07825  42.5887
 7.15875  43.2449
 7.23925  43.6209
 7.31975  43.9507
 7.40025  44.1868
 7.48075  44.1254
 7.56125  44.0817
 7.64175  44.2993
 7.72225  44.3179
 7.80275  44.188
 7.88325  44.0309
 7.96375  43.6145
 8.04425  43.286
 8.12475  42.7931
 8.20525  41.9929
 8.28575  40.8494
 8.36625  39.9735
 8.44675  38.6957
 8.52725  37.5276
 8.60775  36.1782
 8.68825  35.2753
 8.76875  33.7943
 8.84925  32.8558
 8.92975  31.6247
 9.01025  30.6407
 9.09075  29.8256
 9.17125  28.8375
 9.25175  28.0815
 9.33225  27.465
 9.41275  26.873
 9.49325  26.4985
 9.57375  25.95
 9.65425  25.4251
 9.73475  25.1033
 9.81525  24.8637
 9.89575  24.4708
 9.97625  24.0646
 10.0567  24.2083
 10.1373  23.8105
 10.2178  23.7649
 10.2982  23.3666
 10.3788  23.15
 10.4593  23.1861
 10.5397  23.0625
 10.6203  22.7811
 10.7007  22.6859
 10.7813  22.6176
 10.8618  22.5566
 10.9422  22.4339
 11.0228  22.3429
 11.1033  22.2693
 11.1837  22.1756
 11.2643  22.1948
 11.3447  22.1447
 11.4253  22.4469
 11.5058  22.2607
 11.5862  22.7631
 11.6668  22.3177
 11.7473  22.0518
 11.8277  22.3088
 11.9083  22.2408
 11.9887  22.2944
 12.0693  22.2453
 12.1498  22.3383
 12.2302  22.3154
 12.3108  22.351
 12.3913  22.4102
 12.4718  22.4433
 12.5523  22.5648
 12.6328  22.6563
 12.7133  22.7453
 12.7938  22.9796
 12.8742  23.2417
 12.9548  23.5813
 13.0353  24.0088
 13.1158  24.7337
 13.1963  25.493
 13.2768  26.5788
 13.3573  27.4722
 13.4378  28.2353
 13.5183  29.098
 13.5988  29.5983
 13.6793  29.3551
 13.7598  29.1544
 13.8403  28.6546
 13.9208  28.616
 14.0013  27.9349
 14.0818  27.2215
 14.1623  26.5852
 14.2428  26.2093
 14.3233  26.0986
 14.4038  25.8295
 14.4843  25.3909
 14.5648  25.4612
 14.6453  25.2183
 14.7258  25.0583
 14.8063  24.7562
 14.8868  24.7457
 14.9673  24.5238
 15.0478  24.722
 15.1283  24.4472
 15.2088  24.5944
 15.2892  24.4292
 15.3698  24.4767
 15.4503  24.2668
 15.5308  24.4422
 15.6113  24.4379
 15.6918  24.4832
 15.7723  24.3759
 15.8528  24.4654
 15.9332  24.5292
 16.0138  24.5247
 16.0943  24.6927
 16.1748  24.6691
 16.2553  24.9667
 16.3358  24.7391
 16.4163  24.5622
 16.4967  24.38
 16.5773  24.2801
 16.6578  24.2745
 16.7383  24.2539
 16.8188  24.3506
 16.8992  24.1213
 16.9798  24.3294
 17.0603  24.0027
 17.1408  24.0403
 17.2213  23.9228
 17.3017  23.8263
 17.3823  23.9356
 17.4628  23.6981
 17.5433  23.6954
 17.6238  23.6791
 17.7042  23.5168
 17.7847  23.6636
 17.8653  23.5367
 17.9458  23.5219
 18.0263  23.5179
 18.1068  23.5486
 18.1872  23.3785
 18.2678  23.3298
 18.3483  23.3353
 18.4288  23.3554
 18.5093  23.2264
 18.5897  23.3653
 18.6703  23.1876
 18.7508  23.2087
 18.8313  23.17
 18.9118  23.1491
 18.9922  23.1542
 19.0727  23.3721
 19.1533  23.3181
 19.2338  23.2802
 19.3143  23.2557
 19.3948  23.3147
 19.4752  23.3419
 19.5558  23.4917
 19.6363  23.3679
 19.7168  23.6326
 19.7973  23.6083
 19.8777  23.5865
 19.9582  23.2886
 20.0388  23.3715
 20.1193  23.4878
 20.1998  23.3759
 20.2803  23.4149
 20.3607  23.3884
 20.4413  23.5052
 20.5218  23.4079
 20.6023  23.5372
 20.6828  23.428
 20.7632  23.7537
 20.8438  23.5812
 20.9243  23.6569
 21.0048  23.6036
 21.0853  23.5346
 21.1658  23.4882
 21.2462  23.7041
 21.3268  23.6726
 21.4073  23.6299
 21.4878  23.7375
 21.5683  23.7302
 21.6487  24.1385
 21.7293  24.0577
 21.8098  24.0722
 21.8903  24.0537
 21.9708  23.9367
 22.0512  24.1416
 22.1318  24.2021
 22.2123  24.2497
 22.2928  24.1834
 22.3733  24.2274
 22.4538  24.4358
 22.5343  24.4929
 22.6148  24.6706
 22.6953  24.9089
 22.7758  24.9572
 22.8563  25.2812
 22.9367  25.7357
 22.9943  25.9018

File: Data_0132.chi
F:\20151113_APS_34IDE\\Brian\Particle1\OCV\Data_0132.tif
2-Theta Angle (Degrees)
Intensity
       2000
 0.07475  0.0000000E+00
 0.15525  0.0000000E+00
 0.23575  0.0000000E+00
 0.31625  0.0000000E+00
 0.39675  0.0000000E+00
 0.47725  0.0000000E+00
 0.55775  0.0000000E+00
 0.63825  0.0000000E+00
 0.71875  0.0000000E+00
 0.79925  0.0000000E+00
 0.87975  0.0000000E+00
 0.96025  0.0000000E+00
 1.04075  0.0000000E+00
 1.12125  0.0000000E+00
 1.20175  0.0000000E+00
 1.28225  0.0000000E+00
 1.36275  0.0000000E+00
 1.44325  0.0000000E+00
 1.52375  0.0000000E+00
 1.60425  0.0000000E+00
 1.68475  0.0000000E+00
 1.76525  0.0000000E+00
 1.84575  0.0000000E+00
 1.92625  0.0000000E+00
 2.00675  0.0000000E+00
 2.08725  0.0000000E+00
 2.16775  0.0000000E+00
 2.24825  0.0000000E+00
 2.32875  0.0000000E+00
 2.40925  0.0000000E+00
 2.48975  0.0000000E+00
 2.57025  0.0000000E+00
 2.65075  0.0000000E+00
 2.73125  0.0000000E+00
 2.81175  0.0000000E+00
 2.89225  33.8495
 2.97275  35.742
 3.05325  36.7224
 3.13375  35.4683
 3.21425  35.133
 3.29475  34.9873
 3.37525  33.721
 3.45575  33.8784
 3.53625  33.9486
 3.61675  33.6247
 3.69725  33.6433
 3.77775  32.9802
 3.85825  32.8397
 3.93875  32.8096
 4.01925  32.8305
 4.09975  32.7394
 4.18025  32.3609
 4.26075  32.3948
 4.34125  32.6393
 4.42175  32.5351
 4.50225  32.8439
 4.58275  32.5259
 4.66325  32.5903
 4.74375  32.9013
 4.82425  32.2476
 4.90475  33.1035
 4.98525  32.8556
 5.06575  33.4224
 5.14625  33.6519
 5.22675  33.9614
 5.30725  34.2983
 5.38775  34.6555
 5.46825  34.4896
 5.54875  34.5085
 5.62925  34.8028
 5.70975  35.2451
 5.79025  35.2716
 5.87075  35.523
 5.95125  36.4712
 6.03175  36.5791
 6.11225  36.5563
 6.19275  36.4837
 6.27325  37.6433
 6.35375  38.1444
 6.43425  38.7305
 6.51475  39.3055
 6.59525  39.7119
 6.67575  40.3934
 6.75625  40.853
 6.83675  41.5057
 6.91725  42.1791
 6.99775  42.3561
 7.07825  43.1808
 7.15875  43.4651
 7.23925  43.8782
 7.31975  43.5425
 7.40025  44.1068
 7.48075  44.3182
 7.56125  44.323
 7.64175  44.5758
 7.72225  44.0469
 7.80275  44.2852
 7.88325  44.204
 7.96375  44.276
 8.04425  43.5029
 8.12475  43.0498
 8.20525  42.0499
 8.28575  40.9812
 8.36625  39.9935
 8.44675  39.0614
 8.52725  37.8768
 8.60775  36.4081
 8.68825  35.2266
 8.76875  34.1142
 8.84925  32.9704
 8.92975  31.7459
 9.01025  30.7875
 9.09075  29.6104
 9.17125  29.115
 9.25175  28.0053
 9.33225  27.4094
 9.41275  27.2193
 9.49325  26.6634
 9.57375  25.8534
 9.65425  25.5595
 9.73475  25.262
 9.81525  24.9335
 9.89575  24.5339
 9.97625  24.2736
 10.0567  24.1249
 10.1373  23.8669
 10.2178  23.7427
 10.2982  23.6237
 10.3788  23.4336
 10.4593  23.4278
 10.5397  23.0653
 10.6203  22.8252
 10.7007  22.9987
 10.7813  22.6978
 10.8618  22.5339
 10.9422  22.549
 11.0228  22.4289
 11.1033  22.5366
 11.1837  22.2917
 11.2643  22.1786
 11.3447  22.419
 11.4253  22.5015
 11.5058  22.2856
 11.5862  22.9754
 11.6668  22.3575
 11.7473  22.2858
 11.8277  22.2159
 11.9083  22.0243
 11.9887  22.2496
 12.0693  22.4803
 12.1498  22.3554
 12.2302  22.2515
 12.3108  22.2489
 12.3913  22.362
 12.4718  22.4292
 12.5523  22.4814
 12.6328  22.6616
 12.7133  22.9799
 12.7938  22.9756
 12.8742  23.2632
 12.9548  23.6307
 13.0353  24.0744
 13.1158  24.6645
 13.1963  25.4654
 13.2768  26.4405
 13.3573  27.4451
 13.4378  28.3682
 13.5183  29.2245
 13.5988  29.3415
 13.6793  29.3826
 13.7598  29.1533
 13.8403  28.5287
 13.9208  28.5871
 14.0013  27.7868
 14.0818  27.3465
 14.1623  26.6747
 14.2428  26.2509
 14.3233  25.9068
 14.4038  25.8447
 14.4843  25.5253
 14.5648  25.3328
 14.6453  25.1453
 14.7258  25.029
 14.8063  24.7951
 14.8868  24.6925
 14.9673  24.8083
 15.0478  24.6228
 15.1283  24.602
 15.2088  24.7273
 15.2892  24.41
 15.3698  24.3287
 15.4503  24.3802
 15.5308  24.3731
 15.6113  24.441
 15.6918  24.5173
 15.7723  24.4646
 15.8528  24.485
 15.9332  24.5366
 16.0138  24.5668
 16.0943  24.5061
 16.1748  24.6378
 16.2553  24.9361
 16.3358  24.7039
 16.4163  24.4748
 16.4967  24.4854
 16.5773  24.3666
 16.6578  24.2484
 16.7383  24.364
 16.8188  24.2332
 16.8992  24.1855
 16.9798  24.1808
 17.0603  23.9949
 17.1408  24.0818
 17.2213  23.9881
 17.3017  23.9314
 17.3823  23.7597
 17.4628  23.7064
 17.5433  23.6837
 17.6238  23.7131
 17.7042  23.6276
 17.7847  23.7143
 17.8653  23.5359
 17.9458  23.4185
 18.0263  23.4682
 18.1068  23.7345
 18.1872  24.2246
 18.2678  23.5507
 18.3483  23.3386
 18.4288  23.3757
 18.5093  23.3713
 18.5897  23.724
 18.6703  23.6585
 18.7508  23.3595
 18.8313  23.2885
 18.9118  23.2725
 18.9922  23.242
 19.0727  23.2387
 19.1533  23.2032
 19.2338  23.2572
 19.3143  23.3822
 19.3948  23.284
 19.4752  23.2401
 19.5558  23.3291
 19.6363  23.2882
 19.7168  23.6571
 19.7973  23.4746
 19.8777  23.6209
 19.9582  23.4533
 20.0388  23.4976
 20.1193  23.4885
 20.1998  23.4172
 20.2803  23.2993
 20.3607  23.6206
 20.4413  23.4623
 20.5218  23.3559
 20.6023  23.6556
 20.6828  23.489
 20.7632  23.8981
 20.8438  23.8474
 20.9243  23.5991
 21.0048  23.5387
 21.0853  23.6067
 21.1658  23.5242
 21.2462  23.7233
 21.3268  23.6579
 21.4073  23.8592
 21.4878  23.7257
 21.5683  23.9217
 21.6487  23.9111
 21.7293  23.9146
 21.8098  23.9536
 21.8903  23.8385
 21.9708  23.9751
 22.0512  24.1235
 22.1318  24.0982
 22.2123  24.1229
 22.2928  24.2482
 22.3733  24.2913
 22.4538  24.3262
 22.5343  24.5138
 22.6148  24.6784
 22.6953  24.8924
 22.7758  24.9876
 22.8563  25.1791
 22.9367  25.6497
 22.9943  26.0164

File: Data_0133.chi
F:\20151113_APS_34IDE\\Brian\Particle1\OCV\Data_0133.tif
2-Theta Angle (Degrees)
Intensity
       2000
 0.07475  0.0000000E+00
 0.15525  0.0000000E+00
 0.23575  0.0000000E+00
 0.31625  0.0000000E+00
 0.39675  0.0000000E+00
 0.47725  0.0000000E+00
 0.55775  0.0000000E+00
 0.63825  0.0000000E+00
 0.71875  0.0000000E+00
 0.79925  0.0000000E+00
 0.87975  0.0000000E+00
 0.96025  0.0000000E+00
 1.04075  0.0000000E+00
 1.12125  0.0000000E+00
 1.20175  0.0000000E+00
 1.28225  0.0000000E+00
 1.36275  0.0000000E+00
 1.44325  0.0000000E+00
 1.52375  0.0000000E+00
 1.60425  0.0000000E+00
 1.68475  0.0000000E+00
 1.76525  0.0000000E+00
 1.84575  0.0000000E+00
 1.92625  0.0000000E+00
 2.00675  0.0000000E+00
 2.08725  0.0000000E+00
 2.16775  0.0000000E+00
 2.24825  0.0000000E+00
 2.32875  0.0000000E+00
 2.40925  0.0000000E+00
 2.48975  0.0000000E+00
 2.57025  0.0000000E+00
 2.65075  0.0000000E+00
 2.73125  0.0000000E+00
 2.81175  0.0000000E+00
 2.89225  33.834
 2.97275  35.5341
 3.05325  35.115
 3.13375  35.4939
 3.21425  35.7314
 3.29475  36.1197
 3.37525  35.0906
 3.45575  35.0527
 3.53625  34.5781
 3.61675  33.6061
 3.69725  33.74
 3.77775  33.3415
 3.85825  33.1951
 3.93875  32.7497
 4.01925  33.0928
 4.09975  32.7488
 4.18025  32.1474
 4.26075  31.9347
 4.34125  32.6991
 4.42175  32.4632
 4.50225  32.545
 4.58275  32.6021
 4.66325  32.9832
 4.74375  33.1454
 4.82425  32.6666
 4.90475  33.2429
 4.98525  33.0148
 5.06575  33.445
 5.14625  33.7185
 5.22675  34.2
 5.30725  33.9143
 5.38775  34.7832
 5.46825  34.8463
 5.54875  34.9535
 5.62925  35.2421
 5.70975  35.376
 5.79025  35.5242
 5.87075  35.7745
 5.95125  37.7874
 6.03175  38.784
 6.11225  36.9225
 6.19275  36.8464
 6.27325  37.6363
 6.35375  37.9437
 6.43425  38.4594
 6.51475  39.4402
 6.59525  39.8067
 6.67575  40.4311
 6.75625  41.0859
 6.83675  41.4008
 6.91725  42.0056
 6.99775  42.4581
 7.07825  42.668
 7.15875  43.6667
 7.23925  43.5792
 7.31975  43.9301
 7.40025  44.4128
 7.48075  44.9018
 7.56125  44.5768
 7.64175  44.6643
 7.72225  44.7541
 7.80275  44.3679
 7.88325  43.98
 7.96375  44.1399
 8.04425  43.2988
 8.12475  43.1406
 8.20525  42.1108
 8.28575  41.1703
 8.36625  39.9992
 8.44675  38.8552
 8.52725  37.5387
 8.60775  36.4086
 8.68825  35.3237
 8.76875  34.1162
 8.84925  32.8447
 8.92975  31.8613
 9.01025  30.8878
 9.09075  29.9458
 9.17125  29.2456
 9.25175  28.2349
 9.33225  27.6265
 9.41275  27.0206
 9.49325  26.69
 9.57375  26.2393
 9.65425  25.5123
 9.73475  25.3399
 9.81525  25.0384
 9.89575  24.745
 9.97625  24.5207
 10.0567  24.3091
 10.1373  24.1101
 10.2178  23.8223
 10.2982  23.6224
 10.3788  23.3419
 10.4593  23.2599
 10.5397  23.1991
 10.6203  23.0861
 10.7007  22.8587
 10.7813  22.8685
 10.8618  22.6774
 10.9422  22.6772
 11.0228  22.4558
 11.1033  22.5933
 11.1837  22.5851
 11.2643  22.5025
 11.3447  22.2818
 11.4253  22.5601
 11.5058  22.3639
 11.5862  23.2236
 11.6668  22.4965
 11.7473  22.3918
 11.8277  22.389
 11.9083  22.4837
 11.9887  22.7244
 12.0693  22.767
 12.1498  22.6769
 12.2302  22.3724
 12.3108  22.9858
 12.3913  22.7119
 12.4718  22.5121
 12.5523  22.788
 12.6328  22.8241
 12.7133  22.8938
 12.7938  23.0212
 12.8742  23.2124
 12.9548  23.7098
 13.0353  24.214
 13.1158  24.982
 13.1963  25.8124
 13.2768  26.7726
 13.3573  27.5676
 13.4378  28.6383
 13.5183  29.3788
 13.5988  29.8526
 13.6793  29.6609
 13.7598  29.1627
 13.8403  28.8725
 13.9208  28.7817
 14.0013  28.283
 14.0818  27.2247
 14.1623  26.8488
 14.2428  26.4874
 14.3233  26.0625
 14.4038  25.8473
 14.4843  25.6542
 14.5648  25.4718
 14.6453  25.1739
 14.7258  25.2062
 14.8063  25.5194
 14.8868  24.8095
 14.9673  24.6576
 15.0478  24.7079
 15.1283  24.6034
 15.2088  24.7057
 15.2892  24.4897
 15.3698  24.4126
 15.4503  24.4929
 15.5308  24.4061
 15.6113  24.3857
 15.6918  24.4473
 15.7723  24.5055
 15.8528  24.5315
 15.9332  24.4225
 16.0138  24.6428
 16.0943  24.6509
 16.1748  24.9062
 16.2553  30.6114
 16.3358  25.2139
 16.4163  24.6899
 16.4967  24.6577
 16.5773  24.5675
 16.6578  24.3884
 16.7383  24.4145
 16.8188  24.345
 16.8992  24.3907
 16.9798  24.2327
 17.0603  24.2471
 17.1408  24.2498
 17.2213  24.2281
 17.3017  24.1355
 17.3823  23.9313
 17.4628  23.9279
 17.5433  23.6978
 17.6238  23.7154
 17.7042  23.7057
 17.7847  23.6119
 17.8653  23.5699
 17.9458  23.6485
 18.0263  23.6116
 18.1068  23.8472
 18.1872  23.4739
 18.2678  23.4719
 18.3483  23.4749
 18.4288  23.4704
 18.5093  23.3876
 18.5897  23.4428
 18.6703  23.3631
 18.7508  23.3438
 18.8313  23.2733
 18.9118  23.3259
 18.9922  23.3824
 19.0727  23.4637
 19.1533  23.4036
 19.2338  23.4789
 19.3143  23.3497
 19.3948  23.5128
 19.4752  23.4647
 19.5558  23.5548
 19.6363  23.5802
 19.7168  23.9725
 19.7973  23.8009
 19.8777  24.0301
 19.9582  23.5649
 20.0388  23.5798
 20.1193  23.5553
 20.1998  23.5082
 20.2803  23.4877
 20.3607  23.5405
 20.4413  23.565
 20.5218  23.5819
 20.6023  23.6931
 20.6828  23.7481
 20.7632  24.174
 20.8438  23.7557
 20.9243  23.733
 21.0048  23.7132
 21.0853  23.7907
 21.1658  23.752
 21.2462  23.7203
 21.3268  23.7317
 21.4073  23.8313
 21.4878  23.9267
 21.5683  24.0223
 21.6487  23.9701
 21.7293  23.9874
 21.8098  24.0676
 21.8903  24.064
 21.9708  24.0785
 22.0512  24.1369
 22.1318  24.2194
 22.2123  24.3657
 22.2928  24.2385
 22.3733  24.3958
 22.4538  24.5857
 22.5343  24.8005
 22.6148  24.8155
 22.6953  24.9356
 22.7758  25.1401
 22.8563  25.3855
 22.9367  25.6734
 22.9943  25.9392

File: Data_0134.chi
F:\20151113_APS_34IDE\\Brian\Particle1\OCV\Data_0134.tif
2-Theta Angle (Degrees)
Intensity
       2000
 0.07475  0.0000000E+00
 0.15525  0.0000000E+00
 0.23575  0.0000000E+00
 0.31625  0.0000000E+00
 0.39675  0.0000000E+00
 0.47725  0.0000000E+00
 0.55775  0.0000000E+00
 0.63825  0.0000000E+00
 0.71875  0.0000000E+00
 0.79925  0.0000000E+00
 0.87975  0.0000000E+00
 0.96025  0.0000000E+00
 1.04075  0.0000000E+00
 1.12125  0.0000000E+00
 1.20175  0.0000000E+00
 1.28225  0.0000000E+00
 1.36275  0.0000000E+00
 1.44325  0.0000000E+00
 1.52375  0.0000000E+00
 1.60425  0.0000000E+00
 1.68475  0.0000000E+00
 1.76525  0.0000000E+00
 1.84575  0.0000000E+00
 1.92625  0.0000000E+00
 2.00675  0.0000000E+00
 2.08725  0.0000000E+00
 2.16775  0.0000000E+00
 2.24825  0.0000000E+00
 2.32875  0.0000000E+00
 2.40925  0.0000000E+00
 2.48975  0.0000000E+00
 2.57025  0.0000000E+00
 2.65075  0.0000000E+00
 2.73125  0.0000000E+00
 2.81175  0.0000000E+00
 2.89225  34.7234
 2.97275  36.0833
 3.05325  35.1954
 3.13375  33.9732
 3.21425  35.1797
 3.29475  35.1884
 3.37525  34.025
 3.45575  34.3873
 3.53625  33.8531
 3.61675  33.8225
 3.69725  33.5114
 3.77775  33.09
 3.85825  32.5718
 3.93875  32.3394
 4.01925  32.9791
 4.09975  32.2567
 4.18025  32.0906
 4.26075  32.2998
 4.34125  32.4311
 4.42175  32.4214
 4.50225  32.512
 4.58275  32.3328
 4.66325  33.0175
 4.74375  32.6587
 4.82425  32.2547
 4.90475  32.9633
 4.98525  32.95
 5.06575  33.3599
 5.14625  33.8
 5.22675  34.1025
 5.30725  33.8978
 5.38775  34.1737
 5.46825  34.1909
 5.54875  34.7882
 5.62925  34.7598
 5.70975  35.5819
 5.79025  35.2633
 5.87075  35.7727
 5.95125  37.4963
 6.03175  37.286
 6.11225  36.7868
 6.19275  36.7826
 6.27325  37.4526
 6.35375  38.056
 6.43425  38.704
 6.51475  38.9984
 6.59525  39.5122
 6.67575  40.113
 6.75625  40.6168
 6.83675  41.5182
 6.91725  41.7047
 6.99775  42.3063
 7.07825  42.7421
 7.15875  42.9556
 7.23925  43.4455
 7.31975  43.7908
 7.40025  43.9142
 7.48075  44.2736
 7.56125  44.3081
 7.64175  44.3439
 7.72225  44.2567
 7.80275  44.274
 7.88325  44.0789
 7.96375  43.4349
 8.04425  43.142
 8.12475  42.7798
 8.20525  42.1035
 8.28575  41.1993
 8.36625  40.2179
 8.44675  38.7693
 8.52725  37.4191
 8.60775  36.254
 8.68825  35.2504
 8.76875  34.0832
 8.84925  32.8241
 8.92975  31.5064
 9.01025  30.7701
 9.09075  29.6287
 9.17125  28.9944
 9.25175  28.255
 9.33225  27.541
 9.41275  26.9042
 9.49325  26.4479
 9.57375  25.8819
 9.65425  25.5393
 9.73475  25.2701
 9.81525  24.7949
 9.89575  24.432
 9.97625  24.188
 10.0567  23.9369
 10.1373  23.782
 10.2178  23.7144
 10.2982  23.5967
 10.3788  23.3217
 10.4593  23.1466
 10.5397  23.0538
 10.6203  23.0029
 10.7007  22.9136
 10.7813  22.7178
 10.8618  22.6883
 10.9422  22.5109
 11.0228  22.3714
 11.1033  22.2748
 11.1837  22.2429
 11.2643  22.374
 11.3447  22.254
 11.4253  22.4743
 11.5058  22.2528
 11.5862  23.2542
 11.6668  22.4998
 11.7473  22.3598
 11.8277  22.3462
 11.9083  22.3254
 11.9887  22.6179
 12.0693  22.6102
 12.1498  22.5873
 12.2302  22.4232
 12.3108  22.274
 12.3913  22.225
 12.4718  22.5088
 12.5523  22.6086
 12.6328  22.6877
 12.7133  22.8109
 12.7938  22.9083
 12.8742  23.2556
 12.9548  23.5771
 13.0353  23.9346
 13.1158  24.8851
 13.1963  25.6216
 13.2768  26.353
 13.3573  27.5162
 13.4378  28.3237
 13.5183  29.1754
 13.5988  29.4114
 13.6793  29.5697
 13.7598  29.2439
 13.8403  28.8128
 13.9208  29.3065
 14.0013  29.0206
 14.0818  27.381
 14.1623  26.7319
 14.2428  26.295
 14.3233  26.0763
 14.4038  25.624
 14.4843  25.4369
 14.5648  25.2298
 14.6453  25.1272
 14.7258  24.8738
 14.8063  24.8287
 14.8868  24.7219
 14.9673  24.6642
 15.0478  24.6486
 15.1283  24.5424
 15.2088  24.7093
 15.2892  24.4142
 15.3698  24.3611
 15.4503  24.2563
 15.5308  24.3812
 15.6113  24.3956
 15.6918  24.3808
 15.7723  24.3934
 15.8528  24.3946
 15.9332  24.4887
 16.0138  24.4931
 16.0943  24.5307
 16.1748  24.7841
 16.2553  29.0196
 16.3358  24.9028
 16.4163  24.8009
 16.4967  24.5487
 16.5773  24.4461
 16.6578  24.3151
 16.7383  24.2348
 16.8188  24.1957
 16.8992  24.2816
 16.9798  24.1593
 17.0603  25.0093
 17.1408  24.0583
 17.2213  23.9603
 17.3017  24.0269
 17.3823  23.8566
 17.4628  23.7467
 17.5433  23.6281
 17.6238  23.7992
 17.7042  23.6313
 17.7847  23.5665
 17.8653  23.4791
 17.9458  23.4964
 18.0263  23.608
 18.1068  23.8705
 18.1872  23.3161
 18.2678  23.4038
 18.3483  23.4304
 18.4288  23.3657
 18.5093  23.5203
 18.5897  23.2972
 18.6703  23.2505
 18.7508  23.2158
 18.8313  23.3018
 18.9118  23.3063
 18.9922  23.2735
 19.0727  23.2694
 19.1533  23.2749
 19.2338  23.2262
 19.3143  23.3324
 19.3948  23.3852
 19.4752  23.2556
 19.5558  23.948
 19.6363  23.5626
 19.7168  23.8964
 19.7973  23.8059
 19.8777  24.2723
 19.9582  23.4817
 20.0388  23.5215
 20.1193  23.6168
 20.1998  23.3605
 20.2803  23.3791
 20.3607  23.3878
 20.4413  23.5944
 20.5218  23.5166
 20.6023  23.4745
 20.6828  23.592
 20.7632  24.0783
 20.8438  23.7229
 20.9243  23.5772
 21.0048  23.563
 21.0853  23.6798
 21.1658  23.5265
 21.2462  23.6517
 21.3268  23.6253
 21.4073  23.7067
 21.4878  23.7749
 21.5683  23.7898
 21.6487  23.9079
 21.7293  23.8492
 21.8098  23.955
 21.8903  24.0589
 21.9708  24.0326
 22.0512  24.0108
 22.1318  24.1715
 22.2123  24.1399
 22.2928  24.2914
 22.3733  24.3575
 22.4538  24.438
 22.5343  24.5417
 22.6148  24.6924
 22.6953  24.9634
 22.7758  25.072
 22.8563  25.2347
 22.9367  25.6908
 22.9943  26.0478