Folder: scimap-tests/test-data-xrd/xrd-map-34-ID-E (part 17)

File: Data_0069.chi
F:\20151113_APS_34IDE\\Brian\Particle1\OCV\Data_0069.tif
2-Theta Angle (Degrees)
Intensity
       2000
 0.07475  0.0000000E+00
 0.15525  0.0000000E+00
 0.23575  0.0000000E+00
 0.31625  0.0000000E+00
 0.39675  0.0000000E+00
 0.47725  0.0000000E+00
 0.55775  0.0000000E+00
 0.63825  0.0000000E+00
 0.71875  0.0000000E+00
 0.79925  0.0000000E+00
 0.87975  0.0000000E+00
 0.96025  0.0000000E+00
 1.04075  0.0000000E+00
 1.12125  0.0000000E+00
 1.20175  0.0000000E+00
 1.28225  0.0000000E+00
 1.36275  0.0000000E+00
 1.44325  0.0000000E+00
 1.52375  0.0000000E+00
 1.60425  0.0000000E+00
 1.68475  0.0000000E+00
 1.76525  0.0000000E+00
 1.84575  0.0000000E+00
 1.92625  0.0000000E+00
 2.00675  0.0000000E+00
 2.08725  0.0000000E+00
 2.16775  0.0000000E+00
 2.24825  0.0000000E+00
 2.32875  0.0000000E+00
 2.40925  0.0000000E+00
 2.48975  0.0000000E+00
 2.57025  0.0000000E+00
 2.65075  0.0000000E+00
 2.73125  0.0000000E+00
 2.81175  0.0000000E+00
 2.89225  33.9464
 2.97275  34.7055
 3.05325  35.5698
 3.13375  35.6794
 3.21425  35.6352
 3.29475  34.0014
 3.37525  33.6688
 3.45575  33.8873
 3.53625  33.0053
 3.61675  33.1339
 3.69725  32.73
 3.77775  32.3477
 3.85825  32.8589
 3.93875  32.1697
 4.01925  32.789
 4.09975  32.5694
 4.18025  31.6219
 4.26075  31.5254
 4.34125  32.4218
 4.42175  32.2542
 4.50225  32.6229
 4.58275  32.7569
 4.66325  32.4377
 4.74375  32.1201
 4.82425  32.3191
 4.90475  32.4934
 4.98525  32.9911
 5.06575  33.328
 5.14625  33.4093
 5.22675  33.5149
 5.30725  34.0539
 5.38775  34.4351
 5.46825  34.5453
 5.54875  34.6044
 5.62925  34.8399
 5.70975  35.2753
 5.79025  35.5861
 5.87075  36.726
 5.95125  44.8634
 6.03175  43.1329
 6.11225  36.695
 6.19275  36.9329
 6.27325  37.3419
 6.35375  37.5064
 6.43425  38.1061
 6.51475  38.8757
 6.59525  39.2909
 6.67575  39.6599
 6.75625  40.3378
 6.83675  40.9077
 6.91725  41.4903
 6.99775  41.9249
 7.07825  42.5668
 7.15875  42.7422
 7.23925  43.0063
 7.31975  43.2779
 7.40025  43.5227
 7.48075  43.7177
 7.56125  43.7964
 7.64175  44.0253
 7.72225  44.0268
 7.80275  43.7342
 7.88325  43.6464
 7.96375  43.1165
 8.04425  42.8492
 8.12475  42.4908
 8.20525  41.5274
 8.28575  40.5895
 8.36625  39.6273
 8.44675  38.3386
 8.52725  37.1658
 8.60775  35.9676
 8.68825  34.962
 8.76875  33.8621
 8.84925  32.7748
 8.92975  31.478
 9.01025  30.3979
 9.09075  29.6194
 9.17125  29.011
 9.25175  28.0343
 9.33225  27.4131
 9.41275  26.9189
 9.49325  26.3414
 9.57375  25.857
 9.65425  25.4734
 9.73475  25.1771
 9.81525  24.9
 9.89575  24.5325
 9.97625  24.1802
 10.0567  24.1421
 10.1373  23.7318
 10.2178  23.6182
 10.2982  23.4431
 10.3788  23.1527
 10.4593  23.2202
 10.5397  22.8993
 10.6203  22.9185
 10.7007  22.7984
 10.7813  22.8982
 10.8618  22.6631
 10.9422  22.5372
 11.0228  22.5632
 11.1033  22.5103
 11.1837  22.5071
 11.2643  22.3968
 11.3447  22.5397
 11.4253  23.0228
 11.5058  23.41
 11.5862  34.3319
 11.6668  24.2219
 11.7473  22.7785
 11.8277  22.5825
 11.9083  22.816
 11.9887  25.4182
 12.0693  24.8366
 12.1498  25.3462
 12.2302  22.695
 12.3108  22.6687
 12.3913  22.6787
 12.4718  22.7199
 12.5523  22.7405
 12.6328  22.8175
 12.7133  22.8571
 12.7938  22.9631
 12.8742  23.1602
 12.9548  23.7099
 13.0353  24.2175
 13.1158  24.8069
 13.1963  25.5448
 13.2768  26.5952
 13.3573  27.6301
 13.4378  28.2918
 13.5183  29.1605
 13.5988  29.4206
 13.6793  29.559
 13.7598  29.3833
 13.8403  29.3456
 13.9208  33.8462
 14.0013  34.1216
 14.0818  27.9736
 14.1623  26.8983
 14.2428  26.6809
 14.3233  26.1909
 14.4038  25.9133
 14.4843  25.5361
 14.5648  25.5306
 14.6453  25.1123
 14.7258  25.0969
 14.8063  24.9335
 14.8868  24.9276
 14.9673  24.872
 15.0478  24.9498
 15.1283  26.3337
 15.2088  30.211
 15.2892  25.0471
 15.3698  24.7345
 15.4503  24.6419
 15.5308  24.5294
 15.6113  24.5601
 15.6918  24.5728
 15.7723  24.4292
 15.8528  24.5353
 15.9332  24.7568
 16.0138  24.9538
 16.0943  24.7688
 16.1748  24.8813
 16.2553  27.0795
 16.3358  25.0654
 16.4163  24.7668
 16.4967  24.7695
 16.5773  24.5314
 16.6578  24.5229
 16.7383  24.3935
 16.8188  24.5429
 16.8992  24.3268
 16.9798  24.2631
 17.0603  24.1736
 17.1408  24.298
 17.2213  24.2566
 17.3017  24.0701
 17.3823  24.0045
 17.4628  24.0094
 17.5433  24.0563
 17.6238  23.9279
 17.7042  23.9909
 17.7847  23.9427
 17.8653  23.9928
 17.9458  24.0302
 18.0263  27.0897
 18.1068  28.9954
 18.1872  24.3317
 18.2678  23.7664
 18.3483  23.7181
 18.4288  23.6979
 18.5093  23.646
 18.5897  23.5294
 18.6703  23.4192
 18.7508  23.4648
 18.8313  23.6051
 18.9118  23.5156
 18.9922  23.4874
 19.0727  23.6792
 19.1533  23.6388
 19.2338  23.6048
 19.3143  23.7061
 19.3948  23.8695
 19.4752  23.8901
 19.5558  23.9629
 19.6363  24.5436
 19.7168  27.7266
 19.7973  27.7975
 19.8777  40.5913
 19.9582  25.2485
 20.0388  24.2652
 20.1193  24.2117
 20.1998  23.9181
 20.2803  23.8889
 20.3607  23.7769
 20.4413  23.8238
 20.5218  23.7854
 20.6023  23.8499
 20.6828  24.3615
 20.7632  26.5887
 20.8438  25.0611
 20.9243  24.1905
 21.0048  23.9016
 21.0853  23.9553
 21.1658  23.8203
 21.2462  23.9652
 21.3268  23.8267
 21.4073  23.9628
 21.4878  24.0128
 21.5683  23.9519
 21.6487  24.0681
 21.7293  24.0883
 21.8098  24.1476
 21.8903  24.1246
 21.9708  24.185
 22.0512  24.4328
 22.1318  24.2468
 22.2123  24.3482
 22.2928  24.4805
 22.3733  24.5742
 22.4538  24.5924
 22.5343  24.7401
 22.6148  25.0164
 22.6953  25.243
 22.7758  25.2884
 22.8563  25.5665
 22.9367  26.2132
 22.9943  27.1706

File: Data_0070.chi
F:\20151113_APS_34IDE\\Brian\Particle1\OCV\Data_0070.tif
2-Theta Angle (Degrees)
Intensity
       2000
 0.07475  0.0000000E+00
 0.15525  0.0000000E+00
 0.23575  0.0000000E+00
 0.31625  0.0000000E+00
 0.39675  0.0000000E+00
 0.47725  0.0000000E+00
 0.55775  0.0000000E+00
 0.63825  0.0000000E+00
 0.71875  0.0000000E+00
 0.79925  0.0000000E+00
 0.87975  0.0000000E+00
 0.96025  0.0000000E+00
 1.04075  0.0000000E+00
 1.12125  0.0000000E+00
 1.20175  0.0000000E+00
 1.28225  0.0000000E+00
 1.36275  0.0000000E+00
 1.44325  0.0000000E+00
 1.52375  0.0000000E+00
 1.60425  0.0000000E+00
 1.68475  0.0000000E+00
 1.76525  0.0000000E+00
 1.84575  0.0000000E+00
 1.92625  0.0000000E+00
 2.00675  0.0000000E+00
 2.08725  0.0000000E+00
 2.16775  0.0000000E+00
 2.24825  0.0000000E+00
 2.32875  0.0000000E+00
 2.40925  0.0000000E+00
 2.48975  0.0000000E+00
 2.57025  0.0000000E+00
 2.65075  0.0000000E+00
 2.73125  0.0000000E+00
 2.81175  0.0000000E+00
 2.89225  36.0211
 2.97275  35.1459
 3.05325  35.0273
 3.13375  34.4871
 3.21425  35.684
 3.29475  34.7719
 3.37525  33.9458
 3.45575  34.0793
 3.53625  33.5237
 3.61675  33.0332
 3.69725  32.9172
 3.77775  33.0693
 3.85825  32.029
 3.93875  32.0627
 4.01925  32.7746
 4.09975  31.7889
 4.18025  31.1341
 4.26075  31.9147
 4.34125  32.0558
 4.42175  32.0441
 4.50225  32.2953
 4.58275  32.0371
 4.66325  32.5034
 4.74375  32.2775
 4.82425  32.736
 4.90475  32.6399
 4.98525  32.8886
 5.06575  32.8992
 5.14625  33.4078
 5.22675  34.1747
 5.30725  33.6681
 5.38775  34.2908
 5.46825  34.2755
 5.54875  34.8643
 5.62925  35.1988
 5.70975  35.6896
 5.79025  36.1267
 5.87075  37.109
 5.95125  60.0643
 6.03175  56.544
 6.11225  37.614
 6.19275  37.1774
 6.27325  37.3852
 6.35375  37.8808
 6.43425  38.1001
 6.51475  38.9447
 6.59525  39.5242
 6.67575  40.1659
 6.75625  40.3294
 6.83675  40.9414
 6.91725  41.7336
 6.99775  42.1426
 7.07825  42.3062
 7.15875  42.909
 7.23925  42.9462
 7.31975  43.4666
 7.40025  43.7589
 7.48075  44.0178
 7.56125  43.8005
 7.64175  43.88
 7.72225  44.0127
 7.80275  43.6792
 7.88325  43.6705
 7.96375  43.2551
 8.04425  42.7202
 8.12475  42.2158
 8.20525  41.4734
 8.28575  40.5301
 8.36625  39.353
 8.44675  38.4931
 8.52725  37.3384
 8.60775  36.0822
 8.68825  34.9337
 8.76875  33.6267
 8.84925  32.5885
 8.92975  31.5628
 9.01025  30.5962
 9.09075  29.6383
 9.17125  28.9632
 9.25175  28.1444
 9.33225  27.3101
 9.41275  26.8657
 9.49325  26.3993
 9.57375  25.8558
 9.65425  25.4049
 9.73475  25.1924
 9.81525  25.0659
 9.89575  24.5081
 9.97625  24.3038
 10.0567  24.1404
 10.1373  23.899
 10.2178  23.7927
 10.2982  23.4831
 10.3788  23.3758
 10.4593  23.3403
 10.5397  23.0986
 10.6203  22.8721
 10.7007  23.0402
 10.7813  22.7912
 10.8618  22.6723
 10.9422  22.7094
 11.0228  22.6352
 11.1033  22.5267
 11.1837  22.5083
 11.2643  22.4604
 11.3447  22.5092
 11.4253  22.8071
 11.5058  22.974
 11.5862  29.9943
 11.6668  23.9359
 11.7473  22.7198
 11.8277  22.6691
 11.9083  22.6319
 11.9887  24.304
 12.0693  24.4949
 12.1498  26.2551
 12.2302  22.6
 12.3108  22.6026
 12.3913  22.6342
 12.4718  22.5316
 12.5523  22.6739
 12.6328  22.7769
 12.7133  22.9268
 12.7938  23.1675
 12.8742  23.4293
 12.9548  23.6898
 13.0353  24.2183
 13.1158  24.8589
 13.1963  25.5174
 13.2768  26.6901
 13.3573  27.6464
 13.4378  28.5142
 13.5183  29.3416
 13.5988  29.7613
 13.6793  29.8074
 13.7598  29.6316
 13.8403  30.1436
 13.9208  43.7095
 14.0013  41.0941
 14.0818  28.3868
 14.1623  27.3332
 14.2428  26.6863
 14.3233  26.3277
 14.4038  25.9817
 14.4843  25.8506
 14.5648  25.6827
 14.6453  25.4833
 14.7258  26.0634
 14.8063  24.9995
 14.8868  24.8945
 14.9673  24.9113
 15.0478  25.0584
 15.1283  26.1531
 15.2088  39.233
 15.2892  25.9111
 15.3698  24.954
 15.4503  24.7479
 15.5308  24.939
 15.6113  24.6195
 15.6918  24.5156
 15.7723  24.636
 15.8528  24.724
 15.9332  24.66
 16.0138  24.6769
 16.0943  24.9619
 16.1748  24.8297
 16.2553  26.497
 16.3358  25.0561
 16.4163  24.8284
 16.4967  24.7772
 16.5773  24.5764
 16.6578  24.4522
 16.7383  24.5567
 16.8188  24.4949
 16.8992  24.397
 16.9798  24.39
 17.0603  24.1599
 17.1408  24.2559
 17.2213  24.3276
 17.3017  24.1887
 17.3823  24.1212
 17.4628  24.0291
 17.5433  24.0223
 17.6238  24.0857
 17.7042  23.9641
 17.7847  24.2172
 17.8653  24.0661
 17.9458  24.4853
 18.0263  27.5171
 18.1068  41.589
 18.1872  26.1552
 18.2678  24.4654
 18.3483  24.4776
 18.4288  23.9505
 18.5093  23.7932
 18.5897  23.7721
 18.6703  23.4952
 18.7508  23.6052
 18.8313  23.577
 18.9118  23.5252
 18.9922  23.5672
 19.0727  23.6034
 19.1533  23.6063
 19.2338  23.614
 19.3143  23.7269
 19.3948  23.7136
 19.4752  23.7944
 19.5558  23.9909
 19.6363  24.7081
 19.7168  29.7706
 19.7973  27.0024
 19.8777  33.3607
 19.9582  25.1256
 20.0388  24.1252
 20.1193  23.9351
 20.1998  23.9128
 20.2803  23.84
 20.3607  23.8105
 20.4413  24.0129
 20.5218  23.7942
 20.6023  23.8766
 20.6828  24.186
 20.7632  26.3324
 20.8438  24.4988
 20.9243  24.0109
 21.0048  23.9088
 21.0853  24.0623
 21.1658  23.8682
 21.2462  23.9451
 21.3268  23.9161
 21.4073  24.0138
 21.4878  23.9884
 21.5683  24.0221
 21.6487  24.1939
 21.7293  24.2001
 21.8098  24.1479
 21.8903  24.1918
 21.9708  24.2975
 22.0512  24.3903
 22.1318  24.4412
 22.2123  24.5053
 22.2928  24.5063
 22.3733  24.6386
 22.4538  24.7646
 22.5343  24.7972
 22.6148  24.9658
 22.6953  25.2017
 22.7758  25.3198
 22.8563  25.6434
 22.9367  26.0631
 22.9943  26.627

File: Data_0071.chi
F:\20151113_APS_34IDE\\Brian\Particle1\OCV\Data_0071.tif
2-Theta Angle (Degrees)
Intensity
       2000
 0.07475  0.0000000E+00
 0.15525  0.0000000E+00
 0.23575  0.0000000E+00
 0.31625  0.0000000E+00
 0.39675  0.0000000E+00
 0.47725  0.0000000E+00
 0.55775  0.0000000E+00
 0.63825  0.0000000E+00
 0.71875  0.0000000E+00
 0.79925  0.0000000E+00
 0.87975  0.0000000E+00
 0.96025  0.0000000E+00
 1.04075  0.0000000E+00
 1.12125  0.0000000E+00
 1.20175  0.0000000E+00
 1.28225  0.0000000E+00
 1.36275  0.0000000E+00
 1.44325  0.0000000E+00
 1.52375  0.0000000E+00
 1.60425  0.0000000E+00
 1.68475  0.0000000E+00
 1.76525  0.0000000E+00
 1.84575  0.0000000E+00
 1.92625  0.0000000E+00
 2.00675  0.0000000E+00
 2.08725  0.0000000E+00
 2.16775  0.0000000E+00
 2.24825  0.0000000E+00
 2.32875  0.0000000E+00
 2.40925  0.0000000E+00
 2.48975  0.0000000E+00
 2.57025  0.0000000E+00
 2.65075  0.0000000E+00
 2.73125  0.0000000E+00
 2.81175  0.0000000E+00
 2.89225  35.9731
 2.97275  36.1893
 3.05325  35.4793
 3.13375  34.5336
 3.21425  35.1243
 3.29475  33.4892
 3.37525  35.3328
 3.45575  34.0308
 3.53625  32.9799
 3.61675  33.1641
 3.69725  32.6115
 3.77775  32.9522
 3.85825  32.608
 3.93875  32.9474
 4.01925  32.7236
 4.09975  32.5078
 4.18025  32.094
 4.26075  32.0922
 4.34125  32.1652
 4.42175  32.596
 4.50225  32.3485
 4.58275  32.6287
 4.66325  32.9896
 4.74375  32.621
 4.82425  32.0603
 4.90475  32.4208
 4.98525  32.7956
 5.06575  32.9525
 5.14625  33.7886
 5.22675  33.7572
 5.30725  33.7108
 5.38775  34.751
 5.46825  34.4619
 5.54875  34.7981
 5.62925  34.7682
 5.70975  35.5635
 5.79025  36.2157
 5.87075  37.6108
 5.95125  58.0149
 6.03175  53.8114
 6.11225  37.9508
 6.19275  37.4516
 6.27325  37.6437
 6.35375  37.8818
 6.43425  38.4717
 6.51475  39.081
 6.59525  39.1879
 6.67575  39.9312
 6.75625  40.9012
 6.83675  41.2123
 6.91725  41.7555
 6.99775  42.2015
 7.07825  42.5853
 7.15875  43.2373
 7.23925  43.2972
 7.31975  43.3265
 7.40025  43.6638
 7.48075  43.8788
 7.56125  44.3339
 7.64175  44.538
 7.72225  43.797
 7.80275  43.7489
 7.88325  43.5146
 7.96375  43.2096
 8.04425  42.8402
 8.12475  42.5228
 8.20525  41.5481
 8.28575  40.5674
 8.36625  39.9508
 8.44675  38.5971
 8.52725  37.6023
 8.60775  36.0486
 8.68825  35.0374
 8.76875  33.6456
 8.84925  32.7424
 8.92975  31.3611
 9.01025  30.6111
 9.09075  29.8179
 9.17125  28.8946
 9.25175  28.0973
 9.33225  27.3566
 9.41275  26.9522
 9.49325  26.4872
 9.57375  25.9589
 9.65425  25.6141
 9.73475  25.2371
 9.81525  24.9322
 9.89575  24.7136
 9.97625  24.3367
 10.0567  24.2601
 10.1373  24.0607
 10.2178  23.7187
 10.2982  23.7646
 10.3788  23.4795
 10.4593  23.2806
 10.5397  23.1504
 10.6203  22.9101
 10.7007  23.1038
 10.7813  22.9256
 10.8618  22.7869
 10.9422  22.6812
 11.0228  22.6776
 11.1033  22.5857
 11.1837  22.5548
 11.2643  22.5063
 11.3447  22.5458
 11.4253  22.901
 11.5058  23.1675
 11.5862  29.7857
 11.6668  24.2938
 11.7473  22.6527
 11.8277  22.6818
 11.9083  23.0439
 11.9887  27.8293
 12.0693  25.2989
 12.1498  27.1662
 12.2302  22.844
 12.3108  22.6689
 12.3913  22.6564
 12.4718  22.8038
 12.5523  22.8057
 12.6328  22.9085
 12.7133  23.0709
 12.7938  23.1199
 12.8742  23.4523
 12.9548  23.7893
 13.0353  24.2146
 13.1158  24.9823
 13.1963  25.5772
 13.2768  26.7076
 13.3573  27.7695
 13.4378  28.5383
 13.5183  29.5329
 13.5988  29.7492
 13.6793  30.0657
 13.7598  29.9448
 13.8403  29.8557
 13.9208  44.0121
 14.0013  38.1933
 14.0818  28.6142
 14.1623  27.396
 14.2428  26.6942
 14.3233  26.3319
 14.4038  26.0468
 14.4843  25.8469
 14.5648  25.6871
 14.6453  25.4094
 14.7258  25.334
 14.8063  25.0277
 14.8868  25.0108
 14.9673  24.9784
 15.0478  25.0141
 15.1283  25.7091
 15.2088  29.6545
 15.2892  25.2286
 15.3698  24.6057
 15.4503  24.6368
 15.5308  24.8262
 15.6113  24.7498
 15.6918  24.7798
 15.7723  24.8383
 15.8528  24.6836
 15.9332  24.8715
 16.0138  24.8144
 16.0943  24.8029
 16.1748  24.9333
 16.2553  26.2549
 16.3358  24.9798
 16.4163  24.8027
 16.4967  24.8619
 16.5773  24.6446
 16.6578  24.6233
 16.7383  24.5569
 16.8188  24.6168
 16.8992  24.4193
 16.9798  24.4681
 17.0603  24.2922
 17.1408  24.3654
 17.2213  24.3222
 17.3017  24.1047
 17.3823  24.0632
 17.4628  24.2235
 17.5433  24.066
 17.6238  23.9568
 17.7042  23.9781
 17.7847  23.9817
 17.8653  23.889
 17.9458  23.9998
 18.0263  25.6301
 18.1068  27.6871
 18.1872  24.6866
 18.2678  23.7283
 18.3483  23.8254
 18.4288  23.8982
 18.5093  23.8084
 18.5897  23.6902
 18.6703  23.5349
 18.7508  23.5715
 18.8313  23.6234
 18.9118  23.5963
 18.9922  23.5998
 19.0727  23.6475
 19.1533  23.7354
 19.2338  23.732
 19.3143  23.7532
 19.3948  23.669
 19.4752  23.828
 19.5558  24.1574
 19.6363  24.8677
 19.7168  31.5504
 19.7973  25.9756
 19.8777  28.61
 19.9582  24.3965
 20.0388  24.0045
 20.1193  24.0029
 20.1998  23.9608
 20.2803  23.8085
 20.3607  23.801
 20.4413  23.8105
 20.5218  23.8955
 20.6023  24.0325
 20.6828  24.4228
 20.7632  27.0412
 20.8438  24.4862
 20.9243  24.111
 21.0048  24.0081
 21.0853  24.1345
 21.1658  23.8978
 21.2462  24.0752
 21.3268  24.0118
 21.4073  24.0192
 21.4878  24.106
 21.5683  24.0804
 21.6487  24.1942
 21.7293  24.137
 21.8098  24.2213
 21.8903  24.324
 21.9708  24.3076
 22.0512  24.3983
 22.1318  24.4974
 22.2123  24.614
 22.2928  24.7215
 22.3733  24.7332
 22.4538  24.7584
 22.5343  24.979
 22.6148  25.0038
 22.6953  25.275
 22.7758  25.6049
 22.8563  25.7448
 22.9367  26.2388
 22.9943  26.5027

File: Data_0072.chi
F:\20151113_APS_34IDE\\Brian\Particle1\OCV\Data_0072.tif
2-Theta Angle (Degrees)
Intensity
       2000
 0.07475  0.0000000E+00
 0.15525  0.0000000E+00
 0.23575  0.0000000E+00
 0.31625  0.0000000E+00
 0.39675  0.0000000E+00
 0.47725  0.0000000E+00
 0.55775  0.0000000E+00
 0.63825  0.0000000E+00
 0.71875  0.0000000E+00
 0.79925  0.0000000E+00
 0.87975  0.0000000E+00
 0.96025  0.0000000E+00
 1.04075  0.0000000E+00
 1.12125  0.0000000E+00
 1.20175  0.0000000E+00
 1.28225  0.0000000E+00
 1.36275  0.0000000E+00
 1.44325  0.0000000E+00
 1.52375  0.0000000E+00
 1.60425  0.0000000E+00
 1.68475  0.0000000E+00
 1.76525  0.0000000E+00
 1.84575  0.0000000E+00
 1.92625  0.0000000E+00
 2.00675  0.0000000E+00
 2.08725  0.0000000E+00
 2.16775  0.0000000E+00
 2.24825  0.0000000E+00
 2.32875  0.0000000E+00
 2.40925  0.0000000E+00
 2.48975  0.0000000E+00
 2.57025  0.0000000E+00
 2.65075  0.0000000E+00
 2.73125  0.0000000E+00
 2.81175  0.0000000E+00
 2.89225  34.7408
 2.97275  35.294
 3.05325  35.3619
 3.13375  34.7635
 3.21425  35.493
 3.29475  35.7522
 3.37525  34.8761
 3.45575  34.3586
 3.53625  33.5018
 3.61675  32.9738
 3.69725  32.6437
 3.77775  32.6802
 3.85825  32.219
 3.93875  32.6111
 4.01925  32.6409
 4.09975  31.8854
 4.18025  31.6147
 4.26075  31.8008
 4.34125  32.1379
 4.42175  32.2541
 4.50225  32.2101
 4.58275  32.2816
 4.66325  32.6713
 4.74375  32.2991
 4.82425  32.4718
 4.90475  32.6065
 4.98525  32.677
 5.06575  32.8371
 5.14625  33.2068
 5.22675  33.1223
 5.30725  33.6255
 5.38775  34.4021
 5.46825  34.629
 5.54875  34.8729
 5.62925  35.0225
 5.70975  35.2971
 5.79025  35.5809
 5.87075  36.2408
 5.95125  48.7733
 6.03175  49.4018
 6.11225  37.6995
 6.19275  36.9919
 6.27325  37.3547
 6.35375  37.7431
 6.43425  37.9828
 6.51475  38.9588
 6.59525  39.0883
 6.67575  39.9038
 6.75625  40.3548
 6.83675  41.2571
 6.91725  41.6382
 6.99775  41.7916
 7.07825  42.4286
 7.15875  42.8414
 7.23925  42.9977
 7.31975  43.3098
 7.40025  43.4351
 7.48075  43.5928
 7.56125  44.0567
 7.64175  43.7901
 7.72225  43.686
 7.80275  43.3598
 7.88325  43.3572
 7.96375  43.1896
 8.04425  42.7557
 8.12475  42.1084
 8.20525  41.2184
 8.28575  40.6165
 8.36625  39.7542
 8.44675  38.5235
 8.52725  37.4794
 8.60775  36.1035
 8.68825  34.8465
 8.76875  33.6132
 8.84925  32.6758
 8.92975  31.4399
 9.01025  30.5343
 9.09075  29.325
 9.17125  28.7791
 9.25175  28.0064
 9.33225  27.4337
 9.41275  26.8492
 9.49325  26.3547
 9.57375  25.8859
 9.65425  25.4894
 9.73475  25.1125
 9.81525  24.916
 9.89575  24.499
 9.97625  24.3594
 10.0567  23.9343
 10.1373  23.775
 10.2178  23.5658
 10.2982  23.4477
 10.3788  23.1321
 10.4593  23.0388
 10.5397  23.1094
 10.6203  22.9464
 10.7007  22.7033
 10.7813  22.7536
 10.8618  22.6546
 10.9422  22.6068
 11.0228  22.5263
 11.1033  22.4196
 11.1837  22.4784
 11.2643  22.2619
 11.3447  22.3809
 11.4253  22.9363
 11.5058  22.9822
 11.5862  27.969
 11.6668  23.9798
 11.7473  22.558
 11.8277  22.6799
 11.9083  23.3527
 11.9887  30.1985
 12.0693  25.9752
 12.1498  24.8451
 12.2302  22.6337
 12.3108  22.6137
 12.3913  22.574
 12.4718  22.5446
 12.5523  22.694
 12.6328  22.7422
 12.7133  22.8106
 12.7938  23.0557
 12.8742  23.2888
 12.9548  23.7321
 13.0353  24.2059
 13.1158  24.8882
 13.1963  25.6134
 13.2768  26.5946
 13.3573  27.4433
 13.4378  28.3905
 13.5183  29.2667
 13.5988  29.6507
 13.6793  29.8943
 13.7598  29.8792
 13.8403  30.9703
 13.9208  48.5266
 14.0013  62.9179
 14.0818  29.5183
 14.1623  27.4868
 14.2428  26.8926
 14.3233  26.4303
 14.4038  25.919
 14.4843  25.6269
 14.5648  25.5964
 14.6453  25.3033
 14.7258  24.9612
 14.8063  24.9558
 14.8868  24.8268
 14.9673  24.7416
 15.0478  24.9664
 15.1283  25.1228
 15.2088  27.6477
 15.2892  24.8133
 15.3698  24.5156
 15.4503  24.5126
 15.5308  24.4734
 15.6113  24.4508
 15.6918  24.487
 15.7723  24.4801
 15.8528  24.5574
 15.9332  24.5332
 16.0138  24.5755
 16.0943  24.5778
 16.1748  24.8007
 16.2553  25.8315
 16.3358  24.9423
 16.4163  24.5546
 16.4967  24.6342
 16.5773  24.5057
 16.6578  24.5893
 16.7383  24.4968
 16.8188  24.4727
 16.8992  24.3497
 16.9798  24.2869
 17.0603  24.1224
 17.1408  24.1746
 17.2213  24.222
 17.3017  24.065
 17.3823  24.0089
 17.4628  24.1011
 17.5433  23.8768
 17.6238  23.8553
 17.7042  23.9609
 17.7847  23.82
 17.8653  23.7829
 17.9458  24.0672
 18.0263  25.1013
 18.1068  29.2086
 18.1872  24.8299
 18.2678  23.6832
 18.3483  23.8183
 18.4288  23.713
 18.5093  23.5973
 18.5897  23.5255
 18.6703  23.4245
 18.7508  23.5442
 18.8313  23.5483
 18.9118  23.5312
 18.9922  23.4107
 19.0727  23.6286
 19.1533  23.6141
 19.2338  23.487
 19.3143  23.6263
 19.3948  23.7013
 19.4752  23.769
 19.5558  23.8361
 19.6363  24.3226
 19.7168  27.7142
 19.7973  26.9341
 19.8777  32.5504
 19.9582  24.7635
 20.0388  24.1226
 20.1193  23.9573
 20.1998  23.782
 20.2803  23.7844
 20.3607  23.7694
 20.4413  23.7978
 20.5218  23.6995
 20.6023  24.0609
 20.6828  24.4985
 20.7632  28.4632
 20.8438  25.4897
 20.9243  24.1534
 21.0048  24.0243
 21.0853  24.063
 21.1658  23.879
 21.2462  23.9691
 21.3268  23.9585
 21.4073  24.0019
 21.4878  24.0289
 21.5683  23.9562
 21.6487  24.0371
 21.7293  24.1715
 21.8098  24.1248
 21.8903  24.2809
 21.9708  24.2182
 22.0512  24.3235
 22.1318  24.3163
 22.2123  24.4777
 22.2928  24.4645
 22.3733  24.4859
 22.4538  24.6566
 22.5343  24.849
 22.6148  24.9021
 22.6953  25.1942
 22.7758  25.3823
 22.8563  25.627
 22.9367  25.9312
 22.9943  26.4331