Folder: scimap-tests/test-data-xrd/xrd-map-34-ID-E (part 11)

File: Data_0044.chi
F:\20151113_APS_34IDE\\Brian\Particle1\OCV\Data_0044.tif
2-Theta Angle (Degrees)
Intensity
       2000
 0.07475  0.0000000E+00
 0.15525  0.0000000E+00
 0.23575  0.0000000E+00
 0.31625  0.0000000E+00
 0.39675  0.0000000E+00
 0.47725  0.0000000E+00
 0.55775  0.0000000E+00
 0.63825  0.0000000E+00
 0.71875  0.0000000E+00
 0.79925  0.0000000E+00
 0.87975  0.0000000E+00
 0.96025  0.0000000E+00
 1.04075  0.0000000E+00
 1.12125  0.0000000E+00
 1.20175  0.0000000E+00
 1.28225  0.0000000E+00
 1.36275  0.0000000E+00
 1.44325  0.0000000E+00
 1.52375  0.0000000E+00
 1.60425  0.0000000E+00
 1.68475  0.0000000E+00
 1.76525  0.0000000E+00
 1.84575  0.0000000E+00
 1.92625  0.0000000E+00
 2.00675  0.0000000E+00
 2.08725  0.0000000E+00
 2.16775  0.0000000E+00
 2.24825  0.0000000E+00
 2.32875  0.0000000E+00
 2.40925  0.0000000E+00
 2.48975  0.0000000E+00
 2.57025  0.0000000E+00
 2.65075  0.0000000E+00
 2.73125  0.0000000E+00
 2.81175  0.0000000E+00
 2.89225  35.4785
 2.97275  34.4359
 3.05325  35.6043
 3.13375  34.3555
 3.21425  36.1662
 3.29475  34.8517
 3.37525  34.5256
 3.45575  34.7832
 3.53625  34.438
 3.61675  33.5973
 3.69725  34.3352
 3.77775  33.284
 3.85825  32.8651
 3.93875  32.4421
 4.01925  32.3831
 4.09975  31.8201
 4.18025  32.279
 4.26075  32.299
 4.34125  32.1415
 4.42175  32.4998
 4.50225  32.8865
 4.58275  32.9476
 4.66325  32.6341
 4.74375  32.9868
 4.82425  32.4785
 4.90475  33.2357
 4.98525  32.5627
 5.06575  33.131
 5.14625  33.5508
 5.22675  33.839
 5.30725  33.987
 5.38775  34.4716
 5.46825  34.627
 5.54875  34.8044
 5.62925  34.7494
 5.70975  35.1328
 5.79025  35.6539
 5.87075  36.2327
 5.95125  41.6492
 6.03175  38.2892
 6.11225  36.5586
 6.19275  36.9355
 6.27325  37.6002
 6.35375  37.945
 6.43425  38.4281
 6.51475  39.2045
 6.59525  39.5647
 6.67575  39.8989
 6.75625  40.7015
 6.83675  41.5978
 6.91725  41.414
 6.99775  42.2794
 7.07825  42.8851
 7.15875  43.085
 7.23925  43.6397
 7.31975  43.7975
 7.40025  43.9408
 7.48075  45.4078
 7.56125  44.5431
 7.64175  44.4317
 7.72225  44.065
 7.80275  44.0945
 7.88325  43.9913
 7.96375  43.8881
 8.04425  43.261
 8.12475  42.6588
 8.20525  41.8554
 8.28575  40.9334
 8.36625  39.8447
 8.44675  38.8061
 8.52725  37.5613
 8.60775  36.0984
 8.68825  35.2478
 8.76875  33.8057
 8.84925  32.5679
 8.92975  31.5699
 9.01025  30.5103
 9.09075  29.8592
 9.17125  28.7606
 9.25175  28.0582
 9.33225  27.3
 9.41275  26.9782
 9.49325  26.363
 9.57375  25.8169
 9.65425  25.4521
 9.73475  25.115
 9.81525  24.9468
 9.89575  24.5592
 9.97625  24.2283
 10.0567  24.0473
 10.1373  23.6324
 10.2178  23.7272
 10.2982  23.3814
 10.3788  23.2644
 10.4593  23.0935
 10.5397  22.9735
 10.6203  22.8569
 10.7007  22.7771
 10.7813  22.8242
 10.8618  22.5953
 10.9422  22.4442
 11.0228  22.4629
 11.1033  22.4546
 11.1837  22.305
 11.2643  22.1838
 11.3447  22.3307
 11.4253  22.685
 11.5058  22.3132
 11.5862  23.2976
 11.6668  22.4431
 11.7473  22.312
 11.8277  22.2314
 11.9083  22.2401
 11.9887  22.5294
 12.0693  22.5405
 12.1498  22.557
 12.2302  22.3708
 12.3108  22.3769
 12.3913  22.4349
 12.4718  22.4659
 12.5523  22.6004
 12.6328  22.9638
 12.7133  22.8305
 12.7938  23.0057
 12.8742  23.3719
 12.9548  23.5933
 13.0353  24.0492
 13.1158  24.7713
 13.1963  25.5911
 13.2768  26.4051
 13.3573  27.3483
 13.4378  28.3878
 13.5183  29.0332
 13.5988  29.4504
 13.6793  29.3853
 13.7598  28.9373
 13.8403  28.5695
 13.9208  28.9717
 14.0013  28.4134
 14.0818  27.2852
 14.1623  26.7101
 14.2428  26.39
 14.3233  25.9311
 14.4038  25.7867
 14.4843  25.4311
 14.5648  25.3186
 14.6453  25.0819
 14.7258  24.9749
 14.8063  24.8786
 14.8868  24.7601
 14.9673  24.7253
 15.0478  24.6141
 15.1283  24.6794
 15.2088  24.9767
 15.2892  24.5802
 15.3698  24.4578
 15.4503  24.442
 15.5308  24.3805
 15.6113  24.3532
 15.6918  24.4092
 15.7723  24.3553
 15.8528  24.4415
 15.9332  24.4442
 16.0138  24.5317
 16.0943  24.5757
 16.1748  24.6069
 16.2553  24.8359
 16.3358  24.6549
 16.4163  24.4994
 16.4967  24.5692
 16.5773  24.4216
 16.6578  24.3341
 16.7383  24.3673
 16.8188  24.2802
 16.8992  24.1203
 16.9798  24.1532
 17.0603  24.0871
 17.1408  24.0105
 17.2213  24.0904
 17.3017  23.8984
 17.3823  24.0308
 17.4628  23.7616
 17.5433  23.7314
 17.6238  23.636
 17.7042  23.55
 17.7847  23.6054
 17.8653  23.4684
 17.9458  23.5735
 18.0263  23.6143
 18.1068  23.8044
 18.1872  23.3962
 18.2678  23.2844
 18.3483  23.576
 18.4288  23.4903
 18.5093  23.4614
 18.5897  23.3264
 18.6703  23.2749
 18.7508  23.2889
 18.8313  23.4074
 18.9118  23.3507
 18.9922  23.3056
 19.0727  23.3325
 19.1533  23.2694
 19.2338  23.2569
 19.3143  23.3188
 19.3948  23.3677
 19.4752  23.3974
 19.5558  23.4285
 19.6363  23.4996
 19.7168  23.8515
 19.7973  23.7031
 19.8777  23.8882
 19.9582  23.5199
 20.0388  23.3843
 20.1193  23.3692
 20.1998  23.3721
 20.2803  23.4988
 20.3607  23.4829
 20.4413  23.5507
 20.5218  23.4133
 20.6023  23.5033
 20.6828  23.5156
 20.7632  23.797
 20.8438  23.623
 20.9243  23.7149
 21.0048  23.5964
 21.0853  23.5832
 21.1658  23.6267
 21.2462  23.6213
 21.3268  23.6981
 21.4073  23.6962
 21.4878  23.6775
 21.5683  23.7632
 21.6487  23.8812
 21.7293  23.9154
 21.8098  23.8521
 21.8903  23.86
 21.9708  24.0185
 22.0512  24.0351
 22.1318  24.249
 22.2123  24.1901
 22.2928  24.1897
 22.3733  24.3229
 22.4538  24.4035
 22.5343  24.6165
 22.6148  24.6965
 22.6953  24.8899
 22.7758  25.1516
 22.8563  25.2044
 22.9367  25.5856
 22.9943  26.0557

File: Data_0045.chi
F:\20151113_APS_34IDE\\Brian\Particle1\OCV\Data_0045.tif
2-Theta Angle (Degrees)
Intensity
       2000
 0.07475  0.0000000E+00
 0.15525  0.0000000E+00
 0.23575  0.0000000E+00
 0.31625  0.0000000E+00
 0.39675  0.0000000E+00
 0.47725  0.0000000E+00
 0.55775  0.0000000E+00
 0.63825  0.0000000E+00
 0.71875  0.0000000E+00
 0.79925  0.0000000E+00
 0.87975  0.0000000E+00
 0.96025  0.0000000E+00
 1.04075  0.0000000E+00
 1.12125  0.0000000E+00
 1.20175  0.0000000E+00
 1.28225  0.0000000E+00
 1.36275  0.0000000E+00
 1.44325  0.0000000E+00
 1.52375  0.0000000E+00
 1.60425  0.0000000E+00
 1.68475  0.0000000E+00
 1.76525  0.0000000E+00
 1.84575  0.0000000E+00
 1.92625  0.0000000E+00
 2.00675  0.0000000E+00
 2.08725  0.0000000E+00
 2.16775  0.0000000E+00
 2.24825  0.0000000E+00
 2.32875  0.0000000E+00
 2.40925  0.0000000E+00
 2.48975  0.0000000E+00
 2.57025  0.0000000E+00
 2.65075  0.0000000E+00
 2.73125  0.0000000E+00
 2.81175  0.0000000E+00
 2.89225  35.0107
 2.97275  35.7321
 3.05325  34.832
 3.13375  34.4609
 3.21425  34.861
 3.29475  34.1098
 3.37525  34.4074
 3.45575  33.4131
 3.53625  33.1463
 3.61675  33.0477
 3.69725  32.8506
 3.77775  32.3793
 3.85825  32.5542
 3.93875  32.4849
 4.01925  32.1707
 4.09975  32.1084
 4.18025  32.0905
 4.26075  32.012
 4.34125  32.0409
 4.42175  31.8522
 4.50225  32.271
 4.58275  32.3458
 4.66325  32.9495
 4.74375  32.7782
 4.82425  32.5683
 4.90475  32.4681
 4.98525  33.1329
 5.06575  33.1324
 5.14625  33.5307
 5.22675  33.9148
 5.30725  33.9723
 5.38775  34.4839
 5.46825  34.8832
 5.54875  35.0323
 5.62925  35.6921
 5.70975  35.8289
 5.79025  37.3944
 5.87075  40.7911
 5.95125  121.733
 6.03175  151.662
 6.11225  41.1853
 6.19275  38.5376
 6.27325  38.461
 6.35375  38.3953
 6.43425  38.843
 6.51475  39.1181
 6.59525  39.7672
 6.67575  40.2782
 6.75625  40.8368
 6.83675  41.4403
 6.91725  42.1445
 6.99775  42.32
 7.07825  42.7808
 7.15875  43.1041
 7.23925  43.3797
 7.31975  43.8697
 7.40025  44.0896
 7.48075  44.0639
 7.56125  44.587
 7.64175  44.3833
 7.72225  44.3873
 7.80275  44.2182
 7.88325  43.9622
 7.96375  43.4399
 8.04425  43.4093
 8.12475  43.0106
 8.20525  42.1402
 8.28575  40.9902
 8.36625  39.9435
 8.44675  39.1135
 8.52725  37.8239
 8.60775  36.5357
 8.68825  35.1714
 8.76875  33.9785
 8.84925  32.9502
 8.92975  31.8236
 9.01025  30.5969
 9.09075  30.006
 9.17125  29.0889
 9.25175  28.2113
 9.33225  27.6563
 9.41275  27.2773
 9.49325  26.6509
 9.57375  25.9515
 9.65425  25.6054
 9.73475  25.3209
 9.81525  25.0363
 9.89575  24.7131
 9.97625  24.4088
 10.0567  24.2105
 10.1373  23.9026
 10.2178  23.7465
 10.2982  23.6533
 10.3788  23.7138
 10.4593  23.2151
 10.5397  23.2388
 10.6203  23.1279
 10.7007  23.019
 10.7813  24.0181
 10.8618  22.9491
 10.9422  23.3211
 11.0228  22.6717
 11.1033  22.7081
 11.1837  22.6766
 11.2643  22.4862
 11.3447  22.6065
 11.4253  22.8187
 11.5058  23.2251
 11.5862  28.2019
 11.6668  23.2043
 11.7473  22.623
 11.8277  22.6098
 11.9083  22.6176
 11.9887  23.0765
 12.0693  23.0917
 12.1498  23.3318
 12.2302  22.4842
 12.3108  22.7941
 12.3913  22.6894
 12.4718  22.6791
 12.5523  22.7315
 12.6328  23.0522
 12.7133  23.0901
 12.7938  23.2154
 12.8742  23.3746
 12.9548  23.8411
 13.0353  24.1148
 13.1158  25.0248
 13.1963  25.8304
 13.2768  26.6676
 13.3573  27.833
 13.4378  28.6977
 13.5183  29.4373
 13.5988  29.7364
 13.6793  29.6658
 13.7598  29.5014
 13.8403  29.4515
 13.9208  32.7341
 14.0013  33.4158
 14.0818  27.8491
 14.1623  26.96
 14.2428  26.6208
 14.3233  26.1384
 14.4038  26.0971
 14.4843  25.6725
 14.5648  25.6353
 14.6453  25.4296
 14.7258  25.216
 14.8063  25.1389
 14.8868  25.0022
 14.9673  24.948
 15.0478  24.9292
 15.1283  25.0937
 15.2088  25.7361
 15.2892  24.8414
 15.3698  24.6631
 15.4503  24.5252
 15.5308  24.7601
 15.6113  24.5947
 15.6918  24.6149
 15.7723  24.4624
 15.8528  24.6267
 15.9332  24.6383
 16.0138  24.6172
 16.0943  24.9068
 16.1748  25.2372
 16.2553  28.5118
 16.3358  25.1584
 16.4163  24.8912
 16.4967  24.7863
 16.5773  24.7272
 16.6578  24.6052
 16.7383  24.4093
 16.8188  24.4996
 16.8992  24.4023
 16.9798  24.3643
 17.0603  24.2089
 17.1408  24.2559
 17.2213  24.2083
 17.3017  24.2199
 17.3823  24.1212
 17.4628  24.0241
 17.5433  23.8823
 17.6238  23.9685
 17.7042  23.9352
 17.7847  23.8397
 17.8653  23.754
 17.9458  23.863
 18.0263  24.2147
 18.1068  25.7471
 18.1872  23.9798
 18.2678  23.7183
 18.3483  23.648
 18.4288  23.6648
 18.5093  23.8106
 18.5897  23.5864
 18.6703  23.5284
 18.7508  23.5571
 18.8313  23.5386
 18.9118  23.5868
 18.9922  23.5109
 19.0727  23.5382
 19.1533  23.6423
 19.2338  23.6181
 19.3143  23.5758
 19.3948  23.6061
 19.4752  23.639
 19.5558  23.8177
 19.6363  24.0192
 19.7168  25.5576
 19.7973  24.4805
 19.8777  26.6747
 19.9582  24.0537
 20.0388  23.7387
 20.1193  23.6979
 20.1998  23.7135
 20.2803  23.7289
 20.3607  23.7192
 20.4413  23.8313
 20.5218  23.7159
 20.6023  23.9563
 20.6828  24.4936
 20.7632  27.7013
 20.8438  24.3514
 20.9243  24.0604
 21.0048  23.9982
 21.0853  23.9711
 21.1658  23.8361
 21.2462  23.9994
 21.3268  23.9746
 21.4073  24.035
 21.4878  24.1355
 21.5683  23.973
 21.6487  24.1881
 21.7293  24.2705
 21.8098  24.1147
 21.8903  24.2902
 21.9708  24.2954
 22.0512  24.2832
 22.1318  24.2745
 22.2123  24.2908
 22.2928  24.3687
 22.3733  24.5231
 22.4538  24.6562
 22.5343  25.3667
 22.6148  24.8245
 22.6953  25.1114
 22.7758  25.363
 22.8563  25.6198
 22.9367  26.0851
 22.9943  26.5309

File: Data_0046.chi
F:\20151113_APS_34IDE\\Brian\Particle1\OCV\Data_0046.tif
2-Theta Angle (Degrees)
Intensity
       2000
 0.07475  0.0000000E+00
 0.15525  0.0000000E+00
 0.23575  0.0000000E+00
 0.31625  0.0000000E+00
 0.39675  0.0000000E+00
 0.47725  0.0000000E+00
 0.55775  0.0000000E+00
 0.63825  0.0000000E+00
 0.71875  0.0000000E+00
 0.79925  0.0000000E+00
 0.87975  0.0000000E+00
 0.96025  0.0000000E+00
 1.04075  0.0000000E+00
 1.12125  0.0000000E+00
 1.20175  0.0000000E+00
 1.28225  0.0000000E+00
 1.36275  0.0000000E+00
 1.44325  0.0000000E+00
 1.52375  0.0000000E+00
 1.60425  0.0000000E+00
 1.68475  0.0000000E+00
 1.76525  0.0000000E+00
 1.84575  0.0000000E+00
 1.92625  0.0000000E+00
 2.00675  0.0000000E+00
 2.08725  0.0000000E+00
 2.16775  0.0000000E+00
 2.24825  0.0000000E+00
 2.32875  0.0000000E+00
 2.40925  0.0000000E+00
 2.48975  0.0000000E+00
 2.57025  0.0000000E+00
 2.65075  0.0000000E+00
 2.73125  0.0000000E+00
 2.81175  0.0000000E+00
 2.89225  35.4666
 2.97275  34.6286
 3.05325  35.1361
 3.13375  35.4295
 3.21425  35.5328
 3.29475  33.9635
 3.37525  34.3725
 3.45575  35.049
 3.53625  34.4798
 3.61675  33.5365
 3.69725  33.5437
 3.77775  33.0445
 3.85825  33.1509
 3.93875  32.5978
 4.01925  32.4883
 4.09975  32.2916
 4.18025  32.4991
 4.26075  32.5888
 4.34125  32.051
 4.42175  32.3602
 4.50225  32.1866
 4.58275  32.8009
 4.66325  32.7917
 4.74375  32.6292
 4.82425  32.7247
 4.90475  32.8219
 4.98525  32.5334
 5.06575  33.2678
 5.14625  33.607
 5.22675  34.0104
 5.30725  34.0272
 5.38775  34.3772
 5.46825  35.0288
 5.54875  35.1289
 5.62925  35.3388
 5.70975  35.5534
 5.79025  36.2047
 5.87075  37.0324
 5.95125  64.8101
 6.03175  53.0475
 6.11225  38.0468
 6.19275  37.2871
 6.27325  37.5221
 6.35375  37.9683
 6.43425  38.3634
 6.51475  39.4862
 6.59525  39.6404
 6.67575  40.1425
 6.75625  40.8965
 6.83675  41.4765
 6.91725  41.7439
 6.99775  42.5147
 7.07825  42.4678
 7.15875  43.2546
 7.23925  43.4416
 7.31975  43.9093
 7.40025  43.7478
 7.48075  44.0893
 7.56125  44.034
 7.64175  44.2458
 7.72225  44.3661
 7.80275  43.9999
 7.88325  44.0385
 7.96375  44.0117
 8.04425  43.2876
 8.12475  42.7341
 8.20525  41.9373
 8.28575  41.2233
 8.36625  40.221
 8.44675  38.8556
 8.52725  37.6177
 8.60775  36.4663
 8.68825  35.1895
 8.76875  33.6954
 8.84925  32.905
 8.92975  31.6769
 9.01025  30.7754
 9.09075  29.7295
 9.17125  28.8598
 9.25175  28.2452
 9.33225  27.7287
 9.41275  26.9151
 9.49325  26.4551
 9.57375  25.9968
 9.65425  25.629
 9.73475  25.1906
 9.81525  24.9892
 9.89575  24.5013
 9.97625  24.3812
 10.0567  24.2877
 10.1373  24.0087
 10.2178  23.7484
 10.2982  23.5242
 10.3788  23.5799
 10.4593  23.3671
 10.5397  23.1712
 10.6203  23.1145
 10.7007  23.2289
 10.7813  23.0075
 10.8618  22.9663
 10.9422  22.7225
 11.0228  22.7444
 11.1033  22.6547
 11.1837  22.7687
 11.2643  22.8326
 11.3447  22.7422
 11.4253  23.3609
 11.5058  24.258
 11.5862  49.7983
 11.6668  25.1991
 11.7473  23.1267
 11.8277  22.7582
 11.9083  22.8135
 11.9887  24.3378
 12.0693  23.528
 12.1498  23.554
 12.2302  22.5797
 12.3108  22.5376
 12.3913  22.6394
 12.4718  22.6651
 12.5523  22.7992
 12.6328  22.8203
 12.7133  22.9128
 12.7938  23.103
 12.8742  23.5656
 12.9548  23.7884
 13.0353  24.1952
 13.1158  24.9115
 13.1963  25.6875
 13.2768  26.9989
 13.3573  27.677
 13.4378  28.6333
 13.5183  29.5192
 13.5988  30.1037
 13.6793  30.2394
 13.7598  30.2879
 13.8403  31.4165
 13.9208  64.7793
 14.0013  53.5806
 14.0818  29.4215
 14.1623  27.9198
 14.2428  26.9534
 14.3233  26.4899
 14.4038  26.1165
 14.4843  25.8523
 14.5648  25.6042
 14.6453  25.301
 14.7258  25.1936
 14.8063  25.1035
 14.8868  24.9893
 14.9673  24.8751
 15.0478  25.0367
 15.1283  25.3191
 15.2088  28.5224
 15.2892  25.0009
 15.3698  24.7624
 15.4503  24.7002
 15.5308  24.5771
 15.6113  24.5703
 15.6918  24.7468
 15.7723  24.8574
 15.8528  24.7821
 15.9332  24.8374
 16.0138  24.8396
 16.0943  24.7278
 16.1748  25.0878
 16.2553  27.4307
 16.3358  25.2357
 16.4163  24.8644
 16.4967  24.738
 16.5773  24.6151
 16.6578  24.5196
 16.7383  24.3991
 16.8188  24.4749
 16.8992  24.4146
 16.9798  24.4376
 17.0603  24.3274
 17.1408  24.2476
 17.2213  24.1387
 17.3017  24.1746
 17.3823  24.0796
 17.4628  24.0367
 17.5433  23.902
 17.6238  23.9571
 17.7042  23.8728
 17.7847  23.8961
 17.8653  23.9458
 17.9458  23.9389
 18.0263  24.4876
 18.1068  26.5247
 18.1872  24.2377
 18.2678  23.7016
 18.3483  23.7289
 18.4288  23.6814
 18.5093  23.6032
 18.5897  23.6161
 18.6703  23.4331
 18.7508  23.5632
 18.8313  23.5861
 18.9118  23.5328
 18.9922  23.4851
 19.0727  23.5984
 19.1533  23.6046
 19.2338  23.5056
 19.3143  23.5292
 19.3948  23.7382
 19.4752  23.7738
 19.5558  23.9554
 19.6363  25.0788
 19.7168  29.3443
 19.7973  27.413
 19.8777  33.5574
 19.9582  24.7237
 20.0388  24.0325
 20.1193  23.8496
 20.1998  23.8366
 20.2803  23.8363
 20.3607  23.8985
 20.4413  23.8583
 20.5218  23.8808
 20.6023  24.0298
 20.6828  24.5128
 20.7632  29.5535
 20.8438  24.7623
 20.9243  24.2482
 21.0048  24.0205
 21.0853  23.9175
 21.1658  23.8228
 21.2462  24.0234
 21.3268  23.952
 21.4073  24.0264
 21.4878  24.0356
 21.5683  24.0109
 21.6487  24.1975
 21.7293  24.3101
 21.8098  24.2464
 21.8903  24.2882
 21.9708  24.2357
 22.0512  24.3312
 22.1318  24.4634
 22.2123  24.341
 22.2928  24.4831
 22.3733  24.6408
 22.4538  24.6491
 22.5343  24.8279
 22.6148  24.9762
 22.6953  25.1437
 22.7758  25.3794
 22.8563  25.4353
 22.9367  26.1404
 22.9943  26.4045

File: Data_0047.chi
F:\20151113_APS_34IDE\\Brian\Particle1\OCV\Data_0047.tif
2-Theta Angle (Degrees)
Intensity
       2000
 0.07475  0.0000000E+00
 0.15525  0.0000000E+00
 0.23575  0.0000000E+00
 0.31625  0.0000000E+00
 0.39675  0.0000000E+00
 0.47725  0.0000000E+00
 0.55775  0.0000000E+00
 0.63825  0.0000000E+00
 0.71875  0.0000000E+00
 0.79925  0.0000000E+00
 0.87975  0.0000000E+00
 0.96025  0.0000000E+00
 1.04075  0.0000000E+00
 1.12125  0.0000000E+00
 1.20175  0.0000000E+00
 1.28225  0.0000000E+00
 1.36275  0.0000000E+00
 1.44325  0.0000000E+00
 1.52375  0.0000000E+00
 1.60425  0.0000000E+00
 1.68475  0.0000000E+00
 1.76525  0.0000000E+00
 1.84575  0.0000000E+00
 1.92625  0.0000000E+00
 2.00675  0.0000000E+00
 2.08725  0.0000000E+00
 2.16775  0.0000000E+00
 2.24825  0.0000000E+00
 2.32875  0.0000000E+00
 2.40925  0.0000000E+00
 2.48975  0.0000000E+00
 2.57025  0.0000000E+00
 2.65075  0.0000000E+00
 2.73125  0.0000000E+00
 2.81175  0.0000000E+00
 2.89225  34.812
 2.97275  36.0109
 3.05325  35.3735
 3.13375  35.0294
 3.21425  33.9576
 3.29475  34.626
 3.37525  35.6163
 3.45575  33.9954
 3.53625  33.1423
 3.61675  32.9569
 3.69725  33.0859
 3.77775  32.9594
 3.85825  32.7118
 3.93875  32.1979
 4.01925  32.2184
 4.09975  32.4502
 4.18025  32.0804
 4.26075  32.0685
 4.34125  32.1811
 4.42175  32.6735
 4.50225  32.3884
 4.58275  32.4182
 4.66325  32.7302
 4.74375  33.0361
 4.82425  32.4836
 4.90475  32.6197
 4.98525  33.0046
 5.06575  33.4064
 5.14625  33.782
 5.22675  33.5559
 5.30725  34.1508
 5.38775  34.5808
 5.46825  34.6676
 5.54875  34.9172
 5.62925  35.424
 5.70975  35.8192
 5.79025  35.7726
 5.87075  37.3267
 5.95125  62.2123
 6.03175  58.3884
 6.11225  37.9748
 6.19275  37.4487
 6.27325  37.5827
 6.35375  37.8342
 6.43425  38.4471
 6.51475  39.2689
 6.59525  39.7363
 6.67575  39.9261
 6.75625  40.6611
 6.83675  41.1918
 6.91725  41.8402
 6.99775  42.1581
 7.07825  42.6476
 7.15875  43.0907
 7.23925  43.374
 7.31975  43.6767
 7.40025  43.6471
 7.48075  44.0852
 7.56125  44.3
 7.64175  44.0759
 7.72225  44.1356
 7.80275  44.1918
 7.88325  43.6999
 7.96375  43.3248
 8.04425  42.9535
 8.12475  42.686
 8.20525  41.7661
 8.28575  40.5437
 8.36625  39.7855
 8.44675  38.5741
 8.52725  37.2351
 8.60775  36.23
 8.68825  35.2465
 8.76875  33.8288
 8.84925  32.6638
 8.92975  31.4914
 9.01025  30.7323
 9.09075  29.9175
 9.17125  28.8894
 9.25175  28.2534
 9.33225  27.7269
 9.41275  26.9356
 9.49325  26.603
 9.57375  25.7864
 9.65425  25.4978
 9.73475  25.1679
 9.81525  24.9315
 9.89575  24.4506
 9.97625  24.2198
 10.0567  24.087
 10.1373  23.9132
 10.2178  23.8814
 10.2982  23.7287
 10.3788  23.5593
 10.4593  23.3377
 10.5397  23.2606
 10.6203  23.1594
 10.7007  23.0894
 10.7813  22.8613
 10.8618  22.7672
 10.9422  22.7312
 11.0228  22.6109
 11.1033  22.5807
 11.1837  22.7133
 11.2643  22.44
 11.3447  22.6353
 11.4253  23.0305
 11.5058  23.3407
 11.5862  28.9723
 11.6668  23.7662
 11.7473  22.6888
 11.8277  22.6119
 11.9083  22.5548
 11.9887  23.7794
 12.0693  24.2536
 12.1498  23.9312
 12.2302  22.6323
 12.3108  22.6132
 12.3913  22.8204
 12.4718  22.7876
 12.5523  22.8034
 12.6328  22.8278
 12.7133  23.06
 12.7938  23.2369
 12.8742  23.3024
 12.9548  23.8942
 13.0353  24.2536
 13.1158  24.8753
 13.1963  25.7458
 13.2768  26.8033
 13.3573  27.7338
 13.4378  28.5277
 13.5183  29.5902
 13.5988  29.9221
 13.6793  29.8764
 13.7598  29.6339
 13.8403  29.8226
 13.9208  37.3856
 14.0013  36.7608
 14.0818  28.2211
 14.1623  27.4799
 14.2428  26.7604
 14.3233  26.3042
 14.4038  26.0423
 14.4843  25.7737
 14.5648  25.6898
 14.6453  25.423
 14.7258  25.3471
 14.8063  25.2518
 14.8868  25.0361
 14.9673  25.0674
 15.0478  25.1591
 15.1283  26.1211
 15.2088  30.783
 15.2892  25.2476
 15.3698  24.7567
 15.4503  24.7119
 15.5308  24.6473
 15.6113  24.7361
 15.6918  24.648
 15.7723  24.7114
 15.8528  24.7628
 15.9332  24.7955
 16.0138  24.8403
 16.0943  24.8866
 16.1748  25.0624
 16.2553  26.9706
 16.3358  25.2037
 16.4163  24.974
 16.4967  24.8687
 16.5773  24.7692
 16.6578  24.7063
 16.7383  24.6745
 16.8188  24.661
 16.8992  24.5161
 16.9798  24.3665
 17.0603  24.342
 17.1408  24.5132
 17.2213  24.4135
 17.3017  24.3923
 17.3823  24.3068
 17.4628  24.1725
 17.5433  24.1257
 17.6238  23.9957
 17.7042  23.9639
 17.7847  24.0022
 17.8653  24.0074
 17.9458  24.0089
 18.0263  25.2986
 18.1068  27.4262
 18.1872  24.6848
 18.2678  24.0378
 18.3483  23.7606
 18.4288  23.8103
 18.5093  23.7513
 18.5897  23.7356
 18.6703  23.5737
 18.7508  23.6505
 18.8313  23.7434
 18.9118  23.6698
 18.9922  23.685
 19.0727  23.8492
 19.1533  23.6494
 19.2338  23.6929
 19.3143  23.7413
 19.3948  23.9655
 19.4752  23.9098
 19.5558  23.9987
 19.6363  24.61
 19.7168  28.3768
 19.7973  27.5212
 19.8777  35.4937
 19.9582  25.0498
 20.0388  24.3664
 20.1193  24.0643
 20.1998  23.9955
 20.2803  23.9035
 20.3607  24.0115
 20.4413  23.9159
 20.5218  23.8675
 20.6023  24.1715
 20.6828  24.5324
 20.7632  27.8081
 20.8438  24.7989
 20.9243  24.2768
 21.0048  24.0094
 21.0853  24.0777
 21.1658  23.9963
 21.2462  24.0106
 21.3268  24.0759
 21.4073  24.0265
 21.4878  24.0786
 21.5683  24.2226
 21.6487  24.2447
 21.7293  24.3196
 21.8098  24.1766
 21.8903  24.3416
 21.9708  24.4674
 22.0512  24.5282
 22.1318  24.5002
 22.2123  24.4292
 22.2928  24.5791
 22.3733  24.718
 22.4538  24.8254
 22.5343  25.0377
 22.6148  25.1161
 22.6953  25.3606
 22.7758  25.4908
 22.8563  25.825
 22.9367  26.2391
 22.9943  26.7664