Folder: scimap-tests/test-data-xrd/xrd-map-34-ID-E (part 33)

File: Data_0135.chi
F:\20151113_APS_34IDE\\Brian\Particle1\OCV\Data_0135.tif
2-Theta Angle (Degrees)
Intensity
       2000
 0.07475  0.0000000E+00
 0.15525  0.0000000E+00
 0.23575  0.0000000E+00
 0.31625  0.0000000E+00
 0.39675  0.0000000E+00
 0.47725  0.0000000E+00
 0.55775  0.0000000E+00
 0.63825  0.0000000E+00
 0.71875  0.0000000E+00
 0.79925  0.0000000E+00
 0.87975  0.0000000E+00
 0.96025  0.0000000E+00
 1.04075  0.0000000E+00
 1.12125  0.0000000E+00
 1.20175  0.0000000E+00
 1.28225  0.0000000E+00
 1.36275  0.0000000E+00
 1.44325  0.0000000E+00
 1.52375  0.0000000E+00
 1.60425  0.0000000E+00
 1.68475  0.0000000E+00
 1.76525  0.0000000E+00
 1.84575  0.0000000E+00
 1.92625  0.0000000E+00
 2.00675  0.0000000E+00
 2.08725  0.0000000E+00
 2.16775  0.0000000E+00
 2.24825  0.0000000E+00
 2.32875  0.0000000E+00
 2.40925  0.0000000E+00
 2.48975  0.0000000E+00
 2.57025  0.0000000E+00
 2.65075  0.0000000E+00
 2.73125  0.0000000E+00
 2.81175  0.0000000E+00
 2.89225  37.1157
 2.97275  35.894
 3.05325  35.7009
 3.13375  34.9912
 3.21425  35.1397
 3.29475  35.4842
 3.37525  35.3264
 3.45575  34.7231
 3.53625  33.835
 3.61675  33.3358
 3.69725  32.8238
 3.77775  33.2891
 3.85825  32.3997
 3.93875  32.8611
 4.01925  32.659
 4.09975  32.0643
 4.18025  32.4569
 4.26075  32.2923
 4.34125  32.2128
 4.42175  32.5386
 4.50225  32.362
 4.58275  32.602
 4.66325  32.6481
 4.74375  31.9274
 4.82425  32.5771
 4.90475  32.699
 4.98525  32.9914
 5.06575  33.3396
 5.14625  33.5654
 5.22675  33.9714
 5.30725  34.061
 5.38775  34.2796
 5.46825  34.6516
 5.54875  35.0191
 5.62925  34.9795
 5.70975  35.0987
 5.79025  35.4442
 5.87075  35.6364
 5.95125  37.2097
 6.03175  37.3918
 6.11225  36.3473
 6.19275  36.7085
 6.27325  37.3223
 6.35375  37.6782
 6.43425  38.5407
 6.51475  39.1915
 6.59525  39.6676
 6.67575  40.2074
 6.75625  40.6233
 6.83675  41.4231
 6.91725  42.0562
 6.99775  42.0168
 7.07825  42.7518
 7.15875  42.9622
 7.23925  43.4592
 7.31975  43.641
 7.40025  44.04
 7.48075  44.1861
 7.56125  44.4003
 7.64175  44.2356
 7.72225  44.1467
 7.80275  44.2387
 7.88325  43.7772
 7.96375  43.4402
 8.04425  43.1807
 8.12475  42.6831
 8.20525  41.7188
 8.28575  40.9249
 8.36625  39.7884
 8.44675  38.5678
 8.52725  37.7249
 8.60775  36.13
 8.68825  34.771
 8.76875  33.6598
 8.84925  32.7645
 8.92975  31.7573
 9.01025  30.4777
 9.09075  29.6079
 9.17125  28.8666
 9.25175  27.8934
 9.33225  27.2741
 9.41275  27.0446
 9.49325  26.3649
 9.57375  25.6382
 9.65425  25.3809
 9.73475  24.9571
 9.81525  24.7731
 9.89575  24.4494
 9.97625  24.2204
 10.0567  24.1488
 10.1373  23.7912
 10.2178  23.5031
 10.2982  23.3515
 10.3788  23.1912
 10.4593  23.0427
 10.5397  22.8955
 10.6203  22.657
 10.7007  22.791
 10.7813  22.6547
 10.8618  22.623
 10.9422  22.6543
 11.0228  22.2942
 11.1033  22.2596
 11.1837  22.3099
 11.2643  22.1347
 11.3447  22.0488
 11.4253  22.465
 11.5058  22.2737
 11.5862  23.8287
 11.6668  22.3498
 11.7473  22.1443
 11.8277  22.3078
 11.9083  22.3195
 11.9887  22.5857
 12.0693  22.6533
 12.1498  22.5252
 12.2302  22.2819
 12.3108  22.204
 12.3913  22.3963
 12.4718  22.3433
 12.5523  22.4315
 12.6328  22.5601
 12.7133  22.8062
 12.7938  22.8259
 12.8742  23.1491
 12.9548  23.3982
 13.0353  23.8399
 13.1158  24.5677
 13.1963  25.4456
 13.2768  26.2851
 13.3573  27.4375
 13.4378  28.2386
 13.5183  29.1731
 13.5988  29.4602
 13.6793  29.5066
 13.7598  29.2852
 13.8403  28.7522
 13.9208  29.0637
 14.0013  28.3794
 14.0818  27.1516
 14.1623  26.7269
 14.2428  26.1946
 14.3233  26.0185
 14.4038  25.7908
 14.4843  25.5496
 14.5648  25.3798
 14.6453  25.101
 14.7258  24.9139
 14.8063  24.8609
 14.8868  24.5983
 14.9673  24.7226
 15.0478  24.5237
 15.1283  24.3399
 15.2088  24.7341
 15.2892  24.462
 15.3698  24.5096
 15.4503  24.2925
 15.5308  24.2878
 15.6113  24.2809
 15.6918  24.2332
 15.7723  24.3185
 15.8528  24.3361
 15.9332  24.3667
 16.0138  24.4458
 16.0943  24.4725
 16.1748  24.6545
 16.2553  27.9546
 16.3358  24.8353
 16.4163  24.5601
 16.4967  24.6054
 16.5773  24.4525
 16.6578  24.6237
 16.7383  24.3652
 16.8188  24.156
 16.8992  24.1602
 16.9798  24.1027
 17.0603  24.0183
 17.1408  23.9118
 17.2213  24.0467
 17.3017  23.7706
 17.3823  23.7199
 17.4628  23.6267
 17.5433  23.8114
 17.6238  23.469
 17.7042  23.5941
 17.7847  23.5908
 17.8653  23.4619
 17.9458  23.4272
 18.0263  23.5444
 18.1068  23.8436
 18.1872  23.4339
 18.2678  23.3379
 18.3483  23.3649
 18.4288  23.4009
 18.5093  23.3642
 18.5897  23.34
 18.6703  23.1283
 18.7508  23.1616
 18.8313  23.2107
 18.9118  23.302
 18.9922  23.2084
 19.0727  23.2056
 19.1533  23.3061
 19.2338  23.2042
 19.3143  23.2511
 19.3948  23.3117
 19.4752  23.4056
 19.5558  23.3709
 19.6363  23.442
 19.7168  23.8726
 19.7973  23.6879
 19.8777  24.2528
 19.9582  23.3601
 20.0388  23.4385
 20.1193  23.4807
 20.1998  23.3828
 20.2803  23.381
 20.3607  23.3618
 20.4413  23.4834
 20.5218  23.3669
 20.6023  23.5126
 20.6828  23.4956
 20.7632  24.0064
 20.8438  23.5479
 20.9243  23.596
 21.0048  23.4158
 21.0853  23.5171
 21.1658  23.5867
 21.2462  23.6126
 21.3268  23.7192
 21.4073  23.6599
 21.4878  23.6818
 21.5683  23.6187
 21.6487  23.846
 21.7293  23.8309
 21.8098  23.8972
 21.8903  23.8982
 21.9708  23.8897
 22.0512  24.0019
 22.1318  24.0558
 22.2123  24.0315
 22.2928  24.3084
 22.3733  24.2448
 22.4538  24.3354
 22.5343  24.4062
 22.6148  24.684
 22.6953  24.8339
 22.7758  24.9481
 22.8563  25.1792
 22.9367  25.5676
 22.9943  25.871

File: Data_0137.chi
F:\20151113_APS_34IDE\\Brian\Particle1\OCV\Data_0137.tif
2-Theta Angle (Degrees)
Intensity
       2000
 0.07475  0.0000000E+00
 0.15525  0.0000000E+00
 0.23575  0.0000000E+00
 0.31625  0.0000000E+00
 0.39675  0.0000000E+00
 0.47725  0.0000000E+00
 0.55775  0.0000000E+00
 0.63825  0.0000000E+00
 0.71875  0.0000000E+00
 0.79925  0.0000000E+00
 0.87975  0.0000000E+00
 0.96025  0.0000000E+00
 1.04075  0.0000000E+00
 1.12125  0.0000000E+00
 1.20175  0.0000000E+00
 1.28225  0.0000000E+00
 1.36275  0.0000000E+00
 1.44325  0.0000000E+00
 1.52375  0.0000000E+00
 1.60425  0.0000000E+00
 1.68475  0.0000000E+00
 1.76525  0.0000000E+00
 1.84575  0.0000000E+00
 1.92625  0.0000000E+00
 2.00675  0.0000000E+00
 2.08725  0.0000000E+00
 2.16775  0.0000000E+00
 2.24825  0.0000000E+00
 2.32875  0.0000000E+00
 2.40925  0.0000000E+00
 2.48975  0.0000000E+00
 2.57025  0.0000000E+00
 2.65075  0.0000000E+00
 2.73125  0.0000000E+00
 2.81175  0.0000000E+00
 2.89225  35.419
 2.97275  35.2075
 3.05325  35.5721
 3.13375  34.8321
 3.21425  35.0669
 3.29475  34.2862
 3.37525  34.1615
 3.45575  34.2967
 3.53625  34.4546
 3.61675  33.4388
 3.69725  33.3795
 3.77775  33.2804
 3.85825  32.9814
 3.93875  33.353
 4.01925  32.7609
 4.09975  32.5615
 4.18025  32.2951
 4.26075  32.4448
 4.34125  32.3923
 4.42175  32.3617
 4.50225  32.7684
 4.58275  33.2462
 4.66325  33.1525
 4.74375  32.7554
 4.82425  32.4021
 4.90475  32.6444
 4.98525  32.8411
 5.06575  33.5252
 5.14625  33.4552
 5.22675  34.2167
 5.30725  34.0637
 5.38775  34.4924
 5.46825  34.6541
 5.54875  34.791
 5.62925  35.217
 5.70975  35.5559
 5.79025  35.4347
 5.87075  36.0018
 5.95125  38.9513
 6.03175  38.4999
 6.11225  36.9609
 6.19275  36.8036
 6.27325  37.7651
 6.35375  37.8162
 6.43425  38.8343
 6.51475  39.2668
 6.59525  39.4317
 6.67575  39.9949
 6.75625  40.478
 6.83675  41.4851
 6.91725  41.9823
 6.99775  42.3309
 7.07825  42.4607
 7.15875  43.2062
 7.23925  43.7366
 7.31975  43.6664
 7.40025  43.9593
 7.48075  44.0198
 7.56125  44.3458
 7.64175  44.2631
 7.72225  44.2193
 7.80275  43.9418
 7.88325  43.6624
 7.96375  43.6464
 8.04425  43.3368
 8.12475  42.5393
 8.20525  41.9717
 8.28575  40.9841
 8.36625  39.8193
 8.44675  38.6723
 8.52725  37.6059
 8.60775  36.125
 8.68825  35.1226
 8.76875  33.9253
 8.84925  32.5901
 8.92975  31.4688
 9.01025  30.4068
 9.09075  29.8036
 9.17125  28.877
 9.25175  28.0532
 9.33225  27.7402
 9.41275  27.1363
 9.49325  26.364
 9.57375  25.7947
 9.65425  25.3657
 9.73475  24.8811
 9.81525  24.6041
 9.89575  24.4783
 9.97625  24.4631
 10.0567  23.9431
 10.1373  23.9582
 10.2178  23.733
 10.2982  23.6046
 10.3788  23.291
 10.4593  23.115
 10.5397  22.956
 10.6203  22.8659
 10.7007  22.6656
 10.7813  22.6045
 10.8618  22.5941
 10.9422  22.6562
 11.0228  22.4902
 11.1033  22.5064
 11.1837  22.2064
 11.2643  22.2579
 11.3447  22.1881
 11.4253  22.8136
 11.5058  22.5135
 11.5862  23.8405
 11.6668  22.535
 11.7473  22.3018
 11.8277  22.2581
 11.9083  22.4975
 11.9887  23.249
 12.0693  22.6957
 12.1498  22.5047
 12.2302  22.2056
 12.3108  22.2783
 12.3913  22.3173
 12.4718  22.3004
 12.5523  22.5006
 12.6328  22.7872
 12.7133  22.7261
 12.7938  22.8463
 12.8742  23.1169
 12.9548  23.5673
 13.0353  23.9324
 13.1158  24.7381
 13.1963  25.4361
 13.2768  26.4769
 13.3573  27.5749
 13.4378  28.3102
 13.5183  29.0198
 13.5988  29.4044
 13.6793  29.4212
 13.7598  28.8647
 13.8403  28.7821
 13.9208  29.9716
 14.0013  29.0043
 14.0818  27.2185
 14.1623  26.8799
 14.2428  26.314
 14.3233  25.9003
 14.4038  25.9543
 14.4843  25.528
 14.5648  25.368
 14.6453  25.1174
 14.7258  24.895
 14.8063  24.754
 14.8868  24.6374
 14.9673  24.44
 15.0478  24.5756
 15.1283  24.6908
 15.2088  24.9243
 15.2892  24.3983
 15.3698  24.3712
 15.4503  24.0945
 15.5308  24.3032
 15.6113  24.2929
 15.6918  24.3854
 15.7723  24.4055
 15.8528  24.2302
 15.9332  24.4313
 16.0138  24.5102
 16.0943  24.5803
 16.1748  24.5726
 16.2553  26.5074
 16.3358  24.773
 16.4163  24.5129
 16.4967  24.3927
 16.5773  24.3754
 16.6578  24.4402
 16.7383  24.2106
 16.8188  24.1627
 16.8992  24.3337
 16.9798  23.9822
 17.0603  23.85
 17.1408  23.9237
 17.2213  23.8352
 17.3017  23.7991
 17.3823  23.7141
 17.4628  23.8117
 17.5433  23.6693
 17.6238  23.5737
 17.7042  23.5271
 17.7847  23.5318
 17.8653  23.4184
 17.9458  23.5133
 18.0263  23.602
 18.1068  24.2091
 18.1872  23.5536
 18.2678  23.4326
 18.3483  23.4618
 18.4288  23.3736
 18.5093  23.3208
 18.5897  23.3851
 18.6703  23.143
 18.7508  23.1899
 18.8313  23.2014
 18.9118  23.2509
 18.9922  23.1155
 19.0727  23.1742
 19.1533  23.1477
 19.2338  23.0836
 19.3143  23.218
 19.3948  23.4213
 19.4752  23.3559
 19.5558  23.4105
 19.6363  23.5309
 19.7168  23.8902
 19.7973  23.7275
 19.8777  24.1037
 19.9582  23.4758
 20.0388  23.4301
 20.1193  23.3394
 20.1998  23.3855
 20.2803  23.3918
 20.3607  23.329
 20.4413  23.4897
 20.5218  23.4294
 20.6023  23.4847
 20.6828  23.6186
 20.7632  23.974
 20.8438  23.5734
 20.9243  23.585
 21.0048  23.5294
 21.0853  23.5782
 21.1658  23.5074
 21.2462  23.6522
 21.3268  23.5744
 21.4073  23.5797
 21.4878  23.7074
 21.5683  23.6087
 21.6487  23.6745
 21.7293  23.7792
 21.8098  23.7246
 21.8903  23.8806
 21.9708  23.936
 22.0512  24.0172
 22.1318  24.1054
 22.2123  23.9762
 22.2928  24.1529
 22.3733  24.2819
 22.4538  24.3332
 22.5343  24.5234
 22.6148  24.5779
 22.6953  24.7099
 22.7758  24.8964
 22.8563  25.1084
 22.9367  25.5633
 22.9943  25.9367

File: Data_0138.chi
F:\20151113_APS_34IDE\\Brian\Particle1\OCV\Data_0138.tif
2-Theta Angle (Degrees)
Intensity
       2000
 0.07475  0.0000000E+00
 0.15525  0.0000000E+00
 0.23575  0.0000000E+00
 0.31625  0.0000000E+00
 0.39675  0.0000000E+00
 0.47725  0.0000000E+00
 0.55775  0.0000000E+00
 0.63825  0.0000000E+00
 0.71875  0.0000000E+00
 0.79925  0.0000000E+00
 0.87975  0.0000000E+00
 0.96025  0.0000000E+00
 1.04075  0.0000000E+00
 1.12125  0.0000000E+00
 1.20175  0.0000000E+00
 1.28225  0.0000000E+00
 1.36275  0.0000000E+00
 1.44325  0.0000000E+00
 1.52375  0.0000000E+00
 1.60425  0.0000000E+00
 1.68475  0.0000000E+00
 1.76525  0.0000000E+00
 1.84575  0.0000000E+00
 1.92625  0.0000000E+00
 2.00675  0.0000000E+00
 2.08725  0.0000000E+00
 2.16775  0.0000000E+00
 2.24825  0.0000000E+00
 2.32875  0.0000000E+00
 2.40925  0.0000000E+00
 2.48975  0.0000000E+00
 2.57025  0.0000000E+00
 2.65075  0.0000000E+00
 2.73125  0.0000000E+00
 2.81175  0.0000000E+00
 2.89225  33.8026
 2.97275  36.4992
 3.05325  36.4031
 3.13375  35.3211
 3.21425  35.877
 3.29475  35.3181
 3.37525  35.0425
 3.45575  34.4071
 3.53625  34.6787
 3.61675  33.2709
 3.69725  33.1472
 3.77775  33.6962
 3.85825  32.8846
 3.93875  32.9378
 4.01925  32.8026
 4.09975  32.1419
 4.18025  32.3569
 4.26075  32.1041
 4.34125  32.2141
 4.42175  32.5881
 4.50225  32.3206
 4.58275  32.7606
 4.66325  32.8243
 4.74375  32.5858
 4.82425  32.5609
 4.90475  33.4524
 4.98525  32.9943
 5.06575  33.4259
 5.14625  33.7675
 5.22675  33.8756
 5.30725  34.3047
 5.38775  34.2718
 5.46825  34.2481
 5.54875  34.8717
 5.62925  35.1835
 5.70975  35.3958
 5.79025  35.5012
 5.87075  35.659
 5.95125  37.3669
 6.03175  37.6759
 6.11225  36.8824
 6.19275  36.8439
 6.27325  37.3202
 6.35375  38.1306
 6.43425  38.7338
 6.51475  39.1917
 6.59525  39.3909
 6.67575  40.0159
 6.75625  40.5049
 6.83675  41.4579
 6.91725  41.9936
 6.99775  42.4571
 7.07825  42.8338
 7.15875  42.8602
 7.23925  43.4361
 7.31975  43.4488
 7.40025  43.8415
 7.48075  44.2783
 7.56125  44.3014
 7.64175  44.2154
 7.72225  44.3659
 7.80275  44.2689
 7.88325  43.9565
 7.96375  43.6424
 8.04425  43.4199
 8.12475  42.5716
 8.20525  41.9597
 8.28575  41.0177
 8.36625  40.1838
 8.44675  38.8405
 8.52725  37.6791
 8.60775  36.383
 8.68825  35.0648
 8.76875  33.976
 8.84925  32.8907
 8.92975  31.605
 9.01025  30.3599
 9.09075  29.7655
 9.17125  28.9697
 9.25175  27.9006
 9.33225  27.334
 9.41275  26.7534
 9.49325  26.1781
 9.57375  25.8828
 9.65425  25.3892
 9.73475  24.9972
 9.81525  24.7296
 9.89575  24.3637
 9.97625  24.2539
 10.0567  24.2382
 10.1373  23.9085
 10.2178  23.8643
 10.2982  23.4426
 10.3788  23.1573
 10.4593  23.1846
 10.5397  23.1105
 10.6203  22.8699
 10.7007  22.718
 10.7813  22.765
 10.8618  22.5277
 10.9422  22.4895
 11.0228  22.3861
 11.1033  22.3269
 11.1837  22.2239
 11.2643  22.2187
 11.3447  22.3363
 11.4253  22.5357
 11.5058  22.4602
 11.5862  23.2631
 11.6668  22.4283
 11.7473  22.1112
 11.8277  22.2807
 11.9083  22.3248
 11.9887  22.7632
 12.0693  22.6183
 12.1498  22.4697
 12.2302  22.2861
 12.3108  22.3544
 12.3913  22.3901
 12.4718  22.3868
 12.5523  22.533
 12.6328  22.6752
 12.7133  22.8631
 12.7938  22.7698
 12.8742  23.024
 12.9548  23.4712
 13.0353  24.0524
 13.1158  24.6476
 13.1963  25.4042
 13.2768  26.4195
 13.3573  27.4413
 13.4378  28.3646
 13.5183  29.2282
 13.5988  29.5876
 13.6793  29.5179
 13.7598  29.0487
 13.8403  28.7269
 13.9208  30.4555
 14.0013  29.0767
 14.0818  27.5136
 14.1623  26.6114
 14.2428  26.2575
 14.3233  26.0937
 14.4038  25.8595
 14.4843  25.5487
 14.5648  25.3704
 14.6453  25.1242
 14.7258  24.9369
 14.8063  24.824
 14.8868  24.7504
 14.9673  24.5886
 15.0478  24.6099
 15.1283  24.6925
 15.2088  24.8308
 15.2892  24.4714
 15.3698  24.3992
 15.4503  24.292
 15.5308  24.2359
 15.6113  24.2428
 15.6918  24.4288
 15.7723  24.4572
 15.8528  24.3237
 15.9332  24.3804
 16.0138  24.5986
 16.0943  24.5311
 16.1748  24.6453
 16.2553  26.2937
 16.3358  24.7566
 16.4163  24.387
 16.4967  24.3444
 16.5773  24.42
 16.6578  24.3112
 16.7383  24.262
 16.8188  24.1565
 16.8992  24.178
 16.9798  24.0831
 17.0603  23.8679
 17.1408  23.8757
 17.2213  23.8176
 17.3017  23.7833
 17.3823  23.7891
 17.4628  23.7746
 17.5433  23.7287
 17.6238  23.667
 17.7042  23.4756
 17.7847  23.4453
 17.8653  23.4486
 17.9458  23.3359
 18.0263  23.6001
 18.1068  23.8209
 18.1872  23.2944
 18.2678  23.2421
 18.3483  23.2451
 18.4288  23.3567
 18.5093  23.2509
 18.5897  23.315
 18.6703  23.237
 18.7508  23.1411
 18.8313  23.1976
 18.9118  23.1725
 18.9922  23.1589
 19.0727  23.2494
 19.1533  23.6221
 19.2338  23.2343
 19.3143  23.3389
 19.3948  23.3318
 19.4752  23.3239
 19.5558  23.2491
 19.6363  23.4434
 19.7168  23.8032
 19.7973  23.6308
 19.8777  23.8913
 19.9582  23.3334
 20.0388  23.3343
 20.1193  23.3282
 20.1998  23.3208
 20.2803  23.3236
 20.3607  23.2814
 20.4413  23.3609
 20.5218  23.3836
 20.6023  23.5244
 20.6828  23.6213
 20.7632  24.0086
 20.8438  23.5812
 20.9243  23.6563
 21.0048  23.6127
 21.0853  23.5686
 21.1658  23.571
 21.2462  23.6098
 21.3268  23.545
 21.4073  23.6144
 21.4878  23.7619
 21.5683  23.7749
 21.6487  23.7352
 21.7293  23.8266
 21.8098  23.8991
 21.8903  23.9355
 21.9708  23.9261
 22.0512  24.0214
 22.1318  24.039
 22.2123  23.9518
 22.2928  24.0773
 22.3733  24.1354
 22.4538  24.4251
 22.5343  24.403
 22.6148  24.5196
 22.6953  24.7444
 22.7758  24.8879
 22.8563  25.2789
 22.9367  25.5585
 22.9943  25.8458

File: Data_0139.chi
F:\20151113_APS_34IDE\\Brian\Particle1\OCV\Data_0139.tif
2-Theta Angle (Degrees)
Intensity
       2000
 0.07475  0.0000000E+00
 0.15525  0.0000000E+00
 0.23575  0.0000000E+00
 0.31625  0.0000000E+00
 0.39675  0.0000000E+00
 0.47725  0.0000000E+00
 0.55775  0.0000000E+00
 0.63825  0.0000000E+00
 0.71875  0.0000000E+00
 0.79925  0.0000000E+00
 0.87975  0.0000000E+00
 0.96025  0.0000000E+00
 1.04075  0.0000000E+00
 1.12125  0.0000000E+00
 1.20175  0.0000000E+00
 1.28225  0.0000000E+00
 1.36275  0.0000000E+00
 1.44325  0.0000000E+00
 1.52375  0.0000000E+00
 1.60425  0.0000000E+00
 1.68475  0.0000000E+00
 1.76525  0.0000000E+00
 1.84575  0.0000000E+00
 1.92625  0.0000000E+00
 2.00675  0.0000000E+00
 2.08725  0.0000000E+00
 2.16775  0.0000000E+00
 2.24825  0.0000000E+00
 2.32875  0.0000000E+00
 2.40925  0.0000000E+00
 2.48975  0.0000000E+00
 2.57025  0.0000000E+00
 2.65075  0.0000000E+00
 2.73125  0.0000000E+00
 2.81175  0.0000000E+00
 2.89225  35.9884
 2.97275  33.8005
 3.05325  35.4168
 3.13375  35.1609
 3.21425  35.5847
 3.29475  34.5757
 3.37525  34.3923
 3.45575  34.1815
 3.53625  34.2004
 3.61675  32.8919
 3.69725  33.1093
 3.77775  33.4675
 3.85825  32.8719
 3.93875  32.3005
 4.01925  32.9261
 4.09975  32.7158
 4.18025  32.3674
 4.26075  32.1135
 4.34125  32.1353
 4.42175  32.1743
 4.50225  32.4712
 4.58275  32.2981
 4.66325  32.9502
 4.74375  32.6133
 4.82425  32.4816
 4.90475  33.1049
 4.98525  32.9162
 5.06575  32.9881
 5.14625  33.2073
 5.22675  34.0801
 5.30725  34.0985
 5.38775  34.3779
 5.46825  34.6839
 5.54875  34.7319
 5.62925  35.3448
 5.70975  35.4931
 5.79025  35.5836
 5.87075  35.8591
 5.95125  37.2667
 6.03175  37.5243
 6.11225  36.7601
 6.19275  36.9197
 6.27325  37.1782
 6.35375  37.8413
 6.43425  38.3974
 6.51475  39.2568
 6.59525  39.5714
 6.67575  40.2483
 6.75625  40.7287
 6.83675  41.5797
 6.91725  42.0692
 6.99775  42.1088
 7.07825  42.6624
 7.15875  43.2032
 7.23925  43.6814
 7.31975  43.6331
 7.40025  44.1256
 7.48075  44.3583
 7.56125  44.7245
 7.64175  44.7195
 7.72225  44.3186
 7.80275  44.2547
 7.88325  43.8379
 7.96375  43.8515
 8.04425  43.3377
 8.12475  42.4997
 8.20525  42.1807
 8.28575  41.3358
 8.36625  40.0741
 8.44675  38.8995
 8.52725  38.0536
 8.60775  36.3685
 8.68825  35.3524
 8.76875  33.9532
 8.84925  32.7401
 8.92975  31.7828
 9.01025  30.8721
 9.09075  29.9675
 9.17125  29.2286
 9.25175  28.3588
 9.33225  27.3424
 9.41275  27.0926
 9.49325  26.4529
 9.57375  25.8107
 9.65425  25.6354
 9.73475  25.2492
 9.81525  25.1676
 9.89575  24.4904
 9.97625  24.354
 10.0567  24.21
 10.1373  23.9752
 10.2178  23.728
 10.2982  23.6899
 10.3788  23.3644
 10.4593  23.1744
 10.5397  22.9527
 10.6203  22.9852
 10.7007  22.6942
 10.7813  22.8545
 10.8618  22.6449
 10.9422  22.5025
 11.0228  22.567
 11.1033  22.4712
 11.1837  22.4796
 11.2643  22.3832
 11.3447  22.4292
 11.4253  22.5036
 11.5058  22.3985
 11.5862  23.0859
 11.6668  22.42
 11.7473  22.2678
 11.8277  22.3239
 11.9083  22.4781
 11.9887  23.5756
 12.0693  22.8219
 12.1498  22.567
 12.2302  22.453
 12.3108  22.3729
 12.3913  22.5271
 12.4718  22.4779
 12.5523  22.4621
 12.6328  22.7232
 12.7133  22.8512
 12.7938  23.0881
 12.8742  23.2589
 12.9548  23.668
 13.0353  24.0153
 13.1158  24.788
 13.1963  25.4897
 13.2768  26.3734
 13.3573  27.6595
 13.4378  28.4204
 13.5183  29.2451
 13.5988  29.686
 13.6793  29.7901
 13.7598  29.3047
 13.8403  28.962
 13.9208  29.4619
 14.0013  29.3182
 14.0818  27.2794
 14.1623  26.8901
 14.2428  26.3481
 14.3233  26.1429
 14.4038  25.8843
 14.4843  25.6589
 14.5648  25.3806
 14.6453  25.1622
 14.7258  25.0736
 14.8063  24.8451
 14.8868  24.6462
 14.9673  24.7395
 15.0478  24.7082
 15.1283  24.4951
 15.2088  24.8212
 15.2892  24.4735
 15.3698  24.3038
 15.4503  24.3726
 15.5308  24.4594
 15.6113  24.2492
 15.6918  24.4974
 15.7723  24.3673
 15.8528  24.5497
 15.9332  24.5119
 16.0138  24.4851
 16.0943  24.5031
 16.1748  24.735
 16.2553  26.3404
 16.3358  24.7578
 16.4163  24.5571
 16.4967  24.4906
 16.5773  24.4413
 16.6578  24.465
 16.7383  24.3433
 16.8188  24.1221
 16.8992  24.1884
 16.9798  24.1904
 17.0603  24.2172
 17.1408  24.0481
 17.2213  24.1451
 17.3017  23.8753
 17.3823  23.7887
 17.4628  23.8473
 17.5433  23.8235
 17.6238  23.705
 17.7042  23.7352
 17.7847  23.6091
 17.8653  23.5612
 17.9458  23.4623
 18.0263  23.664
 18.1068  23.6677
 18.1872  23.4835
 18.2678  23.2954
 18.3483  23.4498
 18.4288  23.4681
 18.5093  23.3114
 18.5897  23.3616
 18.6703  23.3411
 18.7508  23.364
 18.8313  23.3039
 18.9118  23.3554
 18.9922  23.3302
 19.0727  23.3969
 19.1533  23.3488
 19.2338  23.2319
 19.3143  23.3877
 19.3948  23.5459
 19.4752  23.3305
 19.5558  23.3927
 19.6363  23.472
 19.7168  24.0597
 19.7973  23.7777
 19.8777  23.8123
 19.9582  23.3283
 20.0388  23.4998
 20.1193  23.5059
 20.1998  23.4797
 20.2803  23.5248
 20.3607  23.5484
 20.4413  23.5983
 20.5218  23.4626
 20.6023  23.6251
 20.6828  23.7932
 20.7632  24.2309
 20.8438  23.5541
 20.9243  23.7336
 21.0048  23.7556
 21.0853  23.6996
 21.1658  23.6316
 21.2462  23.6659
 21.3268  23.7166
 21.4073  23.7123
 21.4878  23.7859
 21.5683  23.8414
 21.6487  23.8685
 21.7293  23.8397
 21.8098  23.9937
 21.8903  24.0835
 21.9708  24.0801
 22.0512  24.0164
 22.1318  24.2429
 22.2123  24.3751
 22.2928  24.2439
 22.3733  24.3462
 22.4538  24.4225
 22.5343  24.5109
 22.6148  24.7661
 22.6953  25.0154
 22.7758  24.9926
 22.8563  25.2741
 22.9367  25.6181
 22.9943  25.9719