Folder: scimap-tests/test-data-xrd/xrd-map-34-ID-E (part 10)

File: Data_0040.chi
F:\20151113_APS_34IDE\\Brian\Particle1\OCV\Data_0040.tif
2-Theta Angle (Degrees)
Intensity
       2000
 0.07475  0.0000000E+00
 0.15525  0.0000000E+00
 0.23575  0.0000000E+00
 0.31625  0.0000000E+00
 0.39675  0.0000000E+00
 0.47725  0.0000000E+00
 0.55775  0.0000000E+00
 0.63825  0.0000000E+00
 0.71875  0.0000000E+00
 0.79925  0.0000000E+00
 0.87975  0.0000000E+00
 0.96025  0.0000000E+00
 1.04075  0.0000000E+00
 1.12125  0.0000000E+00
 1.20175  0.0000000E+00
 1.28225  0.0000000E+00
 1.36275  0.0000000E+00
 1.44325  0.0000000E+00
 1.52375  0.0000000E+00
 1.60425  0.0000000E+00
 1.68475  0.0000000E+00
 1.76525  0.0000000E+00
 1.84575  0.0000000E+00
 1.92625  0.0000000E+00
 2.00675  0.0000000E+00
 2.08725  0.0000000E+00
 2.16775  0.0000000E+00
 2.24825  0.0000000E+00
 2.32875  0.0000000E+00
 2.40925  0.0000000E+00
 2.48975  0.0000000E+00
 2.57025  0.0000000E+00
 2.65075  0.0000000E+00
 2.73125  0.0000000E+00
 2.81175  0.0000000E+00
 2.89225  33.1951
 2.97275  34.9344
 3.05325  35.1997
 3.13375  35.2236
 3.21425  34.6529
 3.29475  33.9971
 3.37525  34.4875
 3.45575  33.8473
 3.53625  32.5128
 3.61675  32.9574
 3.69725  32.9868
 3.77775  32.6229
 3.85825  32.1105
 3.93875  32.1673
 4.01925  31.8912
 4.09975  32.3311
 4.18025  31.8095
 4.26075  31.5609
 4.34125  31.4916
 4.42175  31.7878
 4.50225  31.9654
 4.58275  32.1182
 4.66325  32.6388
 4.74375  31.9599
 4.82425  31.9828
 4.90475  32.7842
 4.98525  32.7604
 5.06575  32.8907
 5.14625  33.4071
 5.22675  33.3374
 5.30725  33.8813
 5.38775  34.1723
 5.46825  34.4175
 5.54875  34.4172
 5.62925  34.628
 5.70975  35.0053
 5.79025  35.498
 5.87075  36.1429
 5.95125  45.6365
 6.03175  42.5067
 6.11225  36.6905
 6.19275  36.7727
 6.27325  37.1299
 6.35375  37.7616
 6.43425  38.1927
 6.51475  38.5601
 6.59525  39.084
 6.67575  39.8596
 6.75625  40.218
 6.83675  41.4461
 6.91725  41.3402
 6.99775  42.0669
 7.07825  42.3982
 7.15875  42.5646
 7.23925  43.1047
 7.31975  43.3402
 7.40025  43.4451
 7.48075  43.7969
 7.56125  43.9794
 7.64175  43.9582
 7.72225  43.8363
 7.80275  43.5121
 7.88325  43.7708
 7.96375  43.2555
 8.04425  42.9924
 8.12475  42.1135
 8.20525  41.5189
 8.28575  40.4238
 8.36625  39.519
 8.44675  38.6298
 8.52725  37.3189
 8.60775  36.0058
 8.68825  34.9634
 8.76875  33.607
 8.84925  32.5357
 8.92975  31.5385
 9.01025  30.497
 9.09075  29.6453
 9.17125  28.7173
 9.25175  27.9176
 9.33225  27.4264
 9.41275  26.8107
 9.49325  26.3503
 9.57375  25.8411
 9.65425  25.2948
 9.73475  25.0364
 9.81525  24.893
 9.89575  24.4274
 9.97625  24.1537
 10.0567  23.9859
 10.1373  23.7612
 10.2178  23.6805
 10.2982  23.3089
 10.3788  23.304
 10.4593  23.0361
 10.5397  23.1768
 10.6203  22.9563
 10.7007  22.8061
 10.7813  22.8552
 10.8618  22.6674
 10.9422  22.7062
 11.0228  22.4798
 11.1033  22.6162
 11.1837  22.3371
 11.2643  22.4174
 11.3447  22.6225
 11.4253  23.3889
 11.5058  24.2241
 11.5862  44.394
 11.6668  24.8716
 11.7473  22.6891
 11.8277  22.6197
 11.9083  22.5188
 11.9887  23.6862
 12.0693  27.6477
 12.1498  26.8217
 12.2302  22.7982
 12.3108  22.6109
 12.3913  22.5731
 12.4718  22.6628
 12.5523  22.7327
 12.6328  22.8932
 12.7133  22.9081
 12.7938  23.2787
 12.8742  23.1864
 12.9548  23.5646
 13.0353  24.1207
 13.1158  24.8334
 13.1963  25.6885
 13.2768  26.3633
 13.3573  27.4609
 13.4378  28.2631
 13.5183  29.2861
 13.5988  29.4033
 13.6793  29.4938
 13.7598  29.4294
 13.8403  29.4187
 13.9208  38.0867
 14.0013  34.7704
 14.0818  27.8215
 14.1623  27.0624
 14.2428  26.5699
 14.3233  26.0596
 14.4038  25.8879
 14.4843  25.5521
 14.5648  25.4336
 14.6453  25.2009
 14.7258  24.9537
 14.8063  24.9669
 14.8868  24.7978
 14.9673  24.8141
 15.0478  24.7654
 15.1283  25.2672
 15.2088  28.5708
 15.2892  24.7743
 15.3698  24.5852
 15.4503  24.4517
 15.5308  24.5022
 15.6113  24.3672
 15.6918  24.5265
 15.7723  24.3507
 15.8528  24.348
 15.9332  24.4876
 16.0138  24.4865
 16.0943  24.4845
 16.1748  24.608
 16.2553  25.4195
 16.3358  24.8435
 16.4163  24.6012
 16.4967  24.5823
 16.5773  24.585
 16.6578  24.525
 16.7383  24.3788
 16.8188  24.3934
 16.8992  24.294
 16.9798  24.1925
 17.0603  24.0811
 17.1408  24.0745
 17.2213  24.0512
 17.3017  23.9333
 17.3823  23.9382
 17.4628  23.9818
 17.5433  23.82
 17.6238  23.7587
 17.7042  23.7581
 17.7847  23.7056
 17.8653  23.7388
 17.9458  23.6835
 18.0263  24.3199
 18.1068  25.41
 18.1872  23.8446
 18.2678  23.5409
 18.3483  23.5028
 18.4288  23.5479
 18.5093  23.5732
 18.5897  23.5484
 18.6703  23.4151
 18.7508  23.3689
 18.8313  23.3772
 18.9118  23.286
 18.9922  23.548
 19.0727  23.4528
 19.1533  23.5615
 19.2338  23.4163
 19.3143  23.5103
 19.3948  23.7017
 19.4752  23.5791
 19.5558  23.6919
 19.6363  23.9351
 19.7168  26.1265
 19.7973  24.5244
 19.8777  26.0893
 19.9582  23.8209
 20.0388  23.6706
 20.1193  23.7962
 20.1998  23.6335
 20.2803  23.5995
 20.3607  23.7075
 20.4413  23.6981
 20.5218  23.6511
 20.6023  23.8686
 20.6828  24.2025
 20.7632  26.6831
 20.8438  24.4816
 20.9243  23.9246
 21.0048  23.8581
 21.0853  23.8751
 21.1658  23.7611
 21.2462  23.8501
 21.3268  23.8321
 21.4073  23.966
 21.4878  23.8943
 21.5683  24.0508
 21.6487  24.0387
 21.7293  24.0585
 21.8098  24.0829
 21.8903  24.0282
 21.9708  24.1468
 22.0512  24.1954
 22.1318  24.2722
 22.2123  24.2919
 22.2928  24.3861
 22.3733  24.5984
 22.4538  24.5719
 22.5343  24.608
 22.6148  24.8585
 22.6953  25.0578
 22.7758  25.2221
 22.8563  25.4062
 22.9367  25.9106
 22.9943  26.4289

File: Data_0041.chi
F:\20151113_APS_34IDE\\Brian\Particle1\OCV\Data_0041.tif
2-Theta Angle (Degrees)
Intensity
       2000
 0.07475  0.0000000E+00
 0.15525  0.0000000E+00
 0.23575  0.0000000E+00
 0.31625  0.0000000E+00
 0.39675  0.0000000E+00
 0.47725  0.0000000E+00
 0.55775  0.0000000E+00
 0.63825  0.0000000E+00
 0.71875  0.0000000E+00
 0.79925  0.0000000E+00
 0.87975  0.0000000E+00
 0.96025  0.0000000E+00
 1.04075  0.0000000E+00
 1.12125  0.0000000E+00
 1.20175  0.0000000E+00
 1.28225  0.0000000E+00
 1.36275  0.0000000E+00
 1.44325  0.0000000E+00
 1.52375  0.0000000E+00
 1.60425  0.0000000E+00
 1.68475  0.0000000E+00
 1.76525  0.0000000E+00
 1.84575  0.0000000E+00
 1.92625  0.0000000E+00
 2.00675  0.0000000E+00
 2.08725  0.0000000E+00
 2.16775  0.0000000E+00
 2.24825  0.0000000E+00
 2.32875  0.0000000E+00
 2.40925  0.0000000E+00
 2.48975  0.0000000E+00
 2.57025  0.0000000E+00
 2.65075  0.0000000E+00
 2.73125  0.0000000E+00
 2.81175  0.0000000E+00
 2.89225  34.4639
 2.97275  35.1784
 3.05325  37.0976
 3.13375  35.9395
 3.21425  35.7475
 3.29475  34.5254
 3.37525  35.436
 3.45575  34.4594
 3.53625  34.2117
 3.61675  33.5011
 3.69725  33.3592
 3.77775  33.2025
 3.85825  32.1516
 3.93875  32.1626
 4.01925  32.2015
 4.09975  32.3981
 4.18025  32.1091
 4.26075  32.5213
 4.34125  32.0864
 4.42175  32.3177
 4.50225  32.5006
 4.58275  32.6601
 4.66325  33.1449
 4.74375  32.9407
 4.82425  32.6303
 4.90475  32.8388
 4.98525  33.3446
 5.06575  33.7065
 5.14625  34.0174
 5.22675  33.9214
 5.30725  34.2852
 5.38775  34.7237
 5.46825  34.6116
 5.54875  34.999
 5.62925  35.2891
 5.70975  35.2392
 5.79025  36.1213
 5.87075  36.3251
 5.95125  44.701
 6.03175  43.3469
 6.11225  37.0857
 6.19275  36.9696
 6.27325  37.8676
 6.35375  38.0237
 6.43425  38.3691
 6.51475  39.0515
 6.59525  39.7159
 6.67575  39.7993
 6.75625  40.6135
 6.83675  41.2363
 6.91725  41.9625
 6.99775  42.0514
 7.07825  42.4069
 7.15875  43.1363
 7.23925  43.6169
 7.31975  43.715
 7.40025  44.0583
 7.48075  44.2983
 7.56125  44.5453
 7.64175  43.953
 7.72225  44.2307
 7.80275  44.0137
 7.88325  43.696
 7.96375  43.6834
 8.04425  42.9906
 8.12475  42.2537
 8.20525  41.6059
 8.28575  40.7066
 8.36625  39.9493
 8.44675  38.5117
 8.52725  37.6118
 8.60775  36.2603
 8.68825  35.0518
 8.76875  33.9738
 8.84925  32.6346
 8.92975  31.6919
 9.01025  30.8437
 9.09075  29.951
 9.17125  29.2393
 9.25175  28.1823
 9.33225  27.7895
 9.41275  27.1857
 9.49325  26.6753
 9.57375  26.1138
 9.65425  25.7562
 9.73475  25.3712
 9.81525  24.9883
 9.89575  24.6357
 9.97625  24.5094
 10.0567  24.2603
 10.1373  23.9424
 10.2178  23.8126
 10.2982  23.741
 10.3788  23.7028
 10.4593  23.3539
 10.5397  23.2664
 10.6203  23.088
 10.7007  22.9838
 10.7813  23.0467
 10.8618  22.7571
 10.9422  22.8058
 11.0228  22.6098
 11.1033  22.6365
 11.1837  22.7811
 11.2643  22.5509
 11.3447  22.7278
 11.4253  22.9715
 11.5058  23.4095
 11.5862  30.5922
 11.6668  23.5832
 11.7473  22.8542
 11.8277  22.699
 11.9083  22.7496
 11.9887  25.6736
 12.0693  28.1697
 12.1498  24.3802
 12.2302  22.7697
 12.3108  22.5423
 12.3913  22.5925
 12.4718  22.6542
 12.5523  22.8456
 12.6328  22.9627
 12.7133  22.915
 12.7938  23.2944
 12.8742  23.455
 12.9548  23.8049
 13.0353  24.2151
 13.1158  24.9469
 13.1963  25.5822
 13.2768  26.6435
 13.3573  27.7185
 13.4378  28.5392
 13.5183  29.536
 13.5988  29.7637
 13.6793  29.913
 13.7598  29.6309
 13.8403  29.7424
 13.9208  36.7665
 14.0013  34.9444
 14.0818  28.039
 14.1623  27.2571
 14.2428  26.5116
 14.3233  26.2809
 14.4038  26.0587
 14.4843  25.8709
 14.5648  25.5159
 14.6453  25.3212
 14.7258  25.1671
 14.8063  24.9637
 14.8868  24.9869
 14.9673  24.9104
 15.0478  25.0468
 15.1283  25.3276
 15.2088  28.0906
 15.2892  25.0445
 15.3698  24.6678
 15.4503  24.5691
 15.5308  24.5157
 15.6113  24.5833
 15.6918  24.5877
 15.7723  24.6366
 15.8528  24.645
 15.9332  24.6482
 16.0138  24.7333
 16.0943  24.723
 16.1748  24.9805
 16.2553  25.4549
 16.3358  25.0017
 16.4163  24.8218
 16.4967  24.6138
 16.5773  24.6411
 16.6578  24.7798
 16.7383  24.4231
 16.8188  24.4143
 16.8992  24.4112
 16.9798  24.2979
 17.0603  24.1711
 17.1408  24.3549
 17.2213  24.2005
 17.3017  24.1297
 17.3823  24.0359
 17.4628  24.1715
 17.5433  23.8527
 17.6238  23.902
 17.7042  23.8905
 17.7847  23.7679
 17.8653  23.8221
 17.9458  24.1697
 18.0263  24.9172
 18.1068  25.0975
 18.1872  23.9761
 18.2678  23.7858
 18.3483  23.6161
 18.4288  23.6312
 18.5093  23.6712
 18.5897  23.6898
 18.6703  23.5553
 18.7508  23.5317
 18.8313  23.3574
 18.9118  23.4995
 18.9922  23.4633
 19.0727  23.6259
 19.1533  23.5529
 19.2338  23.6098
 19.3143  23.7287
 19.3948  23.647
 19.4752  23.7191
 19.5558  23.8608
 19.6363  24.5062
 19.7168  27.6952
 19.7973  25.5096
 19.8777  28.7828
 19.9582  24.2364
 20.0388  23.8901
 20.1193  23.7774
 20.1998  23.6622
 20.2803  23.7425
 20.3607  23.7509
 20.4413  23.8967
 20.5218  23.7565
 20.6023  23.9064
 20.6828  24.2036
 20.7632  25.5058
 20.8438  24.2744
 20.9243  23.9852
 21.0048  24.1487
 21.0853  23.9316
 21.1658  23.8791
 21.2462  23.9475
 21.3268  23.8952
 21.4073  23.966
 21.4878  23.9067
 21.5683  24.007
 21.6487  24.0982
 21.7293  24.0503
 21.8098  24.1278
 21.8903  24.2046
 21.9708  24.1599
 22.0512  24.3077
 22.1318  24.4811
 22.2123  24.329
 22.2928  24.4705
 22.3733  24.537
 22.4538  24.7397
 22.5343  24.7768
 22.6148  24.9696
 22.6953  25.1079
 22.7758  25.1557
 22.8563  25.6347
 22.9367  26.1283
 22.9943  26.6661

File: Data_0042.chi
F:\20151113_APS_34IDE\\Brian\Particle1\OCV\Data_0042.tif
2-Theta Angle (Degrees)
Intensity
       2000
 0.07475  0.0000000E+00
 0.15525  0.0000000E+00
 0.23575  0.0000000E+00
 0.31625  0.0000000E+00
 0.39675  0.0000000E+00
 0.47725  0.0000000E+00
 0.55775  0.0000000E+00
 0.63825  0.0000000E+00
 0.71875  0.0000000E+00
 0.79925  0.0000000E+00
 0.87975  0.0000000E+00
 0.96025  0.0000000E+00
 1.04075  0.0000000E+00
 1.12125  0.0000000E+00
 1.20175  0.0000000E+00
 1.28225  0.0000000E+00
 1.36275  0.0000000E+00
 1.44325  0.0000000E+00
 1.52375  0.0000000E+00
 1.60425  0.0000000E+00
 1.68475  0.0000000E+00
 1.76525  0.0000000E+00
 1.84575  0.0000000E+00
 1.92625  0.0000000E+00
 2.00675  0.0000000E+00
 2.08725  0.0000000E+00
 2.16775  0.0000000E+00
 2.24825  0.0000000E+00
 2.32875  0.0000000E+00
 2.40925  0.0000000E+00
 2.48975  0.0000000E+00
 2.57025  0.0000000E+00
 2.65075  0.0000000E+00
 2.73125  0.0000000E+00
 2.81175  0.0000000E+00
 2.89225  34.7241
 2.97275  35.6821
 3.05325  34.5137
 3.13375  36.0616
 3.21425  35.2745
 3.29475  34.5543
 3.37525  34.2774
 3.45575  33.6724
 3.53625  33.6197
 3.61675  33.433
 3.69725  32.7659
 3.77775  33.0353
 3.85825  32.6678
 3.93875  32.631
 4.01925  32.5624
 4.09975  32.3107
 4.18025  32.4025
 4.26075  32.139
 4.34125  32.6912
 4.42175  32.0818
 4.50225  32.4284
 4.58275  32.4993
 4.66325  33.0095
 4.74375  32.7048
 4.82425  32.5927
 4.90475  32.6377
 4.98525  33.0621
 5.06575  33.2264
 5.14625  33.2295
 5.22675  33.944
 5.30725  34.1903
 5.38775  34.2947
 5.46825  34.7553
 5.54875  34.8715
 5.62925  35.0466
 5.70975  35.3601
 5.79025  35.5096
 5.87075  36.2191
 5.95125  40.5597
 6.03175  40.6143
 6.11225  37.1787
 6.19275  36.9255
 6.27325  37.1347
 6.35375  38.0483
 6.43425  38.2986
 6.51475  38.949
 6.59525  39.5825
 6.67575  40.0735
 6.75625  40.5119
 6.83675  41.0635
 6.91725  41.7379
 6.99775  42.1507
 7.07825  42.8159
 7.15875  43.211
 7.23925  43.4405
 7.31975  44.033
 7.40025  43.9008
 7.48075  44.0776
 7.56125  43.9129
 7.64175  44.041
 7.72225  44.2575
 7.80275  44.1326
 7.88325  43.9547
 7.96375  43.3404
 8.04425  43.1842
 8.12475  42.5044
 8.20525  41.5218
 8.28575  40.9042
 8.36625  39.9024
 8.44675  38.687
 8.52725  37.5453
 8.60775  36.2723
 8.68825  34.9791
 8.76875  33.6641
 8.84925  32.8873
 8.92975  31.7764
 9.01025  30.4272
 9.09075  29.6809
 9.17125  28.908
 9.25175  28.5848
 9.33225  27.2983
 9.41275  26.8256
 9.49325  26.3922
 9.57375  26.0261
 9.65425  25.3817
 9.73475  25.1494
 9.81525  24.8239
 9.89575  24.574
 9.97625  24.3327
 10.0567  24.1655
 10.1373  23.6508
 10.2178  23.6307
 10.2982  23.5079
 10.3788  23.3284
 10.4593  23.2042
 10.5397  23.1114
 10.6203  22.9197
 10.7007  22.8614
 10.7813  22.8613
 10.8618  22.7463
 10.9422  22.5648
 11.0228  22.38
 11.1033  22.3078
 11.1837  22.3293
 11.2643  22.3405
 11.3447  22.3376
 11.4253  22.9928
 11.5058  23.1791
 11.5862  28.0445
 11.6668  23.5335
 11.7473  22.4517
 11.8277  22.4976
 11.9083  22.5779
 11.9887  23.2877
 12.0693  23.8411
 12.1498  23.2268
 12.2302  22.4455
 12.3108  22.5328
 12.3913  22.5086
 12.4718  22.5487
 12.5523  22.6183
 12.6328  22.8139
 12.7133  22.8838
 12.7938  22.8498
 12.8742  23.2886
 12.9548  23.4968
 13.0353  23.9419
 13.1158  24.8566
 13.1963  25.5426
 13.2768  26.4964
 13.3573  27.6043
 13.4378  28.5466
 13.5183  29.222
 13.5988  29.6953
 13.6793  29.6616
 13.7598  29.4195
 13.8403  29.3839
 13.9208  31.4717
 14.0013  29.9986
 14.0818  27.7319
 14.1623  27.0402
 14.2428  26.2673
 14.3233  26.122
 14.4038  25.8002
 14.4843  25.6872
 14.5648  25.4465
 14.6453  25.1821
 14.7258  25.0248
 14.8063  24.8149
 14.8868  24.707
 14.9673  24.7493
 15.0478  24.7469
 15.1283  24.974
 15.2088  26.3569
 15.2892  24.6741
 15.3698  24.4694
 15.4503  24.3915
 15.5308  24.2916
 15.6113  24.3571
 15.6918  24.4279
 15.7723  24.4209
 15.8528  24.3925
 15.9332  24.5749
 16.0138  24.5975
 16.0943  24.4721
 16.1748  24.6809
 16.2553  25.1402
 16.3358  24.803
 16.4163  24.7605
 16.4967  24.5512
 16.5773  24.4647
 16.6578  24.3405
 16.7383  24.4269
 16.8188  24.3568
 16.8992  24.2933
 16.9798  24.1345
 17.0603  24.0064
 17.1408  24.1336
 17.2213  24.1027
 17.3017  23.9751
 17.3823  23.9282
 17.4628  23.8828
 17.5433  23.7669
 17.6238  23.7274
 17.7042  23.6889
 17.7847  23.6303
 17.8653  23.633
 17.9458  23.7765
 18.0263  23.923
 18.1068  24.4444
 18.1872  23.6661
 18.2678  23.5187
 18.3483  23.4104
 18.4288  23.3799
 18.5093  23.3796
 18.5897  23.3659
 18.6703  23.3525
 18.7508  23.2712
 18.8313  23.4024
 18.9118  23.3978
 18.9922  23.347
 19.0727  23.3843
 19.1533  23.3312
 19.2338  23.3391
 19.3143  23.4677
 19.3948  23.4907
 19.4752  23.5672
 19.5558  23.5981
 19.6363  23.873
 19.7168  25.053
 19.7973  24.845
 19.8777  25.2141
 19.9582  23.8461
 20.0388  23.5425
 20.1193  23.7531
 20.1998  23.7733
 20.2803  23.5775
 20.3607  23.5536
 20.4413  23.6859
 20.5218  23.5799
 20.6023  23.8107
 20.6828  24.0078
 20.7632  25.1174
 20.8438  23.967
 20.9243  23.9488
 21.0048  23.7993
 21.0853  23.7757
 21.1658  23.7189
 21.2462  23.7019
 21.3268  23.7359
 21.4073  23.7599
 21.4878  23.7288
 21.5683  23.8282
 21.6487  23.9229
 21.7293  23.9267
 21.8098  23.9546
 21.8903  23.89
 21.9708  24.2162
 22.0512  24.4467
 22.1318  24.2137
 22.2123  24.2051
 22.2928  24.2683
 22.3733  24.3518
 22.4538  24.6093
 22.5343  24.6093
 22.6148  24.6692
 22.6953  24.9871
 22.7758  25.1579
 22.8563  25.3994
 22.9367  25.837
 22.9943  26.3832

File: Data_0043.chi
F:\20151113_APS_34IDE\\Brian\Particle1\OCV\Data_0043.tif
2-Theta Angle (Degrees)
Intensity
       2000
 0.07475  0.0000000E+00
 0.15525  0.0000000E+00
 0.23575  0.0000000E+00
 0.31625  0.0000000E+00
 0.39675  0.0000000E+00
 0.47725  0.0000000E+00
 0.55775  0.0000000E+00
 0.63825  0.0000000E+00
 0.71875  0.0000000E+00
 0.79925  0.0000000E+00
 0.87975  0.0000000E+00
 0.96025  0.0000000E+00
 1.04075  0.0000000E+00
 1.12125  0.0000000E+00
 1.20175  0.0000000E+00
 1.28225  0.0000000E+00
 1.36275  0.0000000E+00
 1.44325  0.0000000E+00
 1.52375  0.0000000E+00
 1.60425  0.0000000E+00
 1.68475  0.0000000E+00
 1.76525  0.0000000E+00
 1.84575  0.0000000E+00
 1.92625  0.0000000E+00
 2.00675  0.0000000E+00
 2.08725  0.0000000E+00
 2.16775  0.0000000E+00
 2.24825  0.0000000E+00
 2.32875  0.0000000E+00
 2.40925  0.0000000E+00
 2.48975  0.0000000E+00
 2.57025  0.0000000E+00
 2.65075  0.0000000E+00
 2.73125  0.0000000E+00
 2.81175  0.0000000E+00
 2.89225  33.3186
 2.97275  36.1738
 3.05325  35.7397
 3.13375  35.0353
 3.21425  34.8608
 3.29475  34.2963
 3.37525  34.6427
 3.45575  34.4207
 3.53625  34.2456
 3.61675  33.228
 3.69725  33.5366
 3.77775  33.3255
 3.85825  32.8956
 3.93875  32.8942
 4.01925  32.5386
 4.09975  32.5027
 4.18025  32.5768
 4.26075  32.8295
 4.34125  32.5497
 4.42175  32.3826
 4.50225  33.2812
 4.58275  32.7809
 4.66325  33.0369
 4.74375  32.9377
 4.82425  32.3806
 4.90475  32.7941
 4.98525  33.3549
 5.06575  33.3802
 5.14625  33.5108
 5.22675  34.0512
 5.30725  34.1892
 5.38775  34.8058
 5.46825  34.541
 5.54875  34.8589
 5.62925  35.041
 5.70975  35.3982
 5.79025  35.6097
 5.87075  35.7441
 5.95125  37.7967
 6.03175  37.6299
 6.11225  36.6189
 6.19275  36.8942
 6.27325  37.6588
 6.35375  38.2129
 6.43425  38.3555
 6.51475  38.8507
 6.59525  39.7263
 6.67575  40.3716
 6.75625  40.8868
 6.83675  41.2873
 6.91725  42.0575
 6.99775  42.1081
 7.07825  42.633
 7.15875  43.0424
 7.23925  43.4987
 7.31975  43.7162
 7.40025  43.9635
 7.48075  44.3159
 7.56125  44.175
 7.64175  44.1309
 7.72225  43.9103
 7.80275  43.9387
 7.88325  44.1457
 7.96375  43.3671
 8.04425  43.5015
 8.12475  42.6323
 8.20525  41.8951
 8.28575  40.7771
 8.36625  39.6741
 8.44675  38.7924
 8.52725  37.3408
 8.60775  36.2967
 8.68825  35.1287
 8.76875  33.7709
 8.84925  32.6823
 8.92975  31.5966
 9.01025  30.4603
 9.09075  29.5715
 9.17125  28.9474
 9.25175  27.9228
 9.33225  27.5939
 9.41275  26.9231
 9.49325  26.4141
 9.57375  25.8725
 9.65425  25.3575
 9.73475  25.0199
 9.81525  24.7828
 9.89575  24.3735
 9.97625  24.2116
 10.0567  23.9259
 10.1373  23.9034
 10.2178  23.5652
 10.2982  23.4235
 10.3788  23.3085
 10.4593  23.0067
 10.5397  23.0512
 10.6203  22.7414
 10.7007  22.7453
 10.7813  22.669
 10.8618  22.7439
 10.9422  22.4981
 11.0228  22.5979
 11.1033  22.4514
 11.1837  22.4125
 11.2643  22.4103
 11.3447  22.2975
 11.4253  22.6362
 11.5058  22.2666
 11.5862  24.0081
 11.6668  22.6914
 11.7473  22.3152
 11.8277  22.1979
 11.9083  22.1345
 11.9887  22.5273
 12.0693  22.6586
 12.1498  22.7665
 12.2302  22.2783
 12.3108  22.4428
 12.3913  22.4179
 12.4718  22.4389
 12.5523  22.5593
 12.6328  22.6786
 12.7133  22.6273
 12.7938  22.7279
 12.8742  23.096
 12.9548  23.4685
 13.0353  23.9054
 13.1158  24.4946
 13.1963  25.4461
 13.2768  26.4114
 13.3573  27.3504
 13.4378  28.3622
 13.5183  29.1674
 13.5988  29.3922
 13.6793  29.4515
 13.7598  29.0824
 13.8403  28.6531
 13.9208  29.5042
 14.0013  29.1029
 14.0818  27.3059
 14.1623  26.8291
 14.2428  26.1977
 14.3233  26.1274
 14.4038  25.8131
 14.4843  25.5779
 14.5648  25.4277
 14.6453  25.2277
 14.7258  24.9882
 14.8063  24.8722
 14.8868  24.8114
 14.9673  24.5971
 15.0478  24.6098
 15.1283  24.648
 15.2088  25.1863
 15.2892  24.555
 15.3698  24.3692
 15.4503  24.3332
 15.5308  24.4932
 15.6113  24.2767
 15.6918  24.3935
 15.7723  24.4057
 15.8528  24.2629
 15.9332  24.4541
 16.0138  24.522
 16.0943  24.419
 16.1748  24.5248
 16.2553  24.992
 16.3358  24.7302
 16.4163  24.5425
 16.4967  24.4796
 16.5773  24.4967
 16.6578  24.2283
 16.7383  24.2523
 16.8188  24.177
 16.8992  24.166
 16.9798  24.1101
 17.0603  24.0635
 17.1408  24.0293
 17.2213  23.9332
 17.3017  23.9281
 17.3823  23.7828
 17.4628  23.721
 17.5433  23.6324
 17.6238  23.6404
 17.7042  23.5508
 17.7847  23.54
 17.8653  23.4006
 17.9458  23.4797
 18.0263  23.7217
 18.1068  23.5997
 18.1872  23.3358
 18.2678  23.3894
 18.3483  23.3322
 18.4288  23.3653
 18.5093  23.3646
 18.5897  23.252
 18.6703  23.2007
 18.7508  23.1339
 18.8313  23.1974
 18.9118  23.2178
 18.9922  23.1666
 19.0727  23.4092
 19.1533  23.3474
 19.2338  23.4142
 19.3143  23.3171
 19.3948  23.3155
 19.4752  23.3546
 19.5558  23.3625
 19.6363  23.4536
 19.7168  23.8556
 19.7973  23.6364
 19.8777  24.019
 19.9582  23.4454
 20.0388  23.3259
 20.1193  23.4856
 20.1998  23.4424
 20.2803  23.4471
 20.3607  23.4
 20.4413  23.3613
 20.5218  23.4548
 20.6023  23.5307
 20.6828  23.6004
 20.7632  24.0358
 20.8438  23.655
 20.9243  23.5496
 21.0048  23.5974
 21.0853  23.5538
 21.1658  23.5051
 21.2462  23.6212
 21.3268  23.6599
 21.4073  23.6524
 21.4878  23.6627
 21.5683  23.7333
 21.6487  23.775
 21.7293  23.8261
 21.8098  23.9496
 21.8903  23.8184
 21.9708  23.9392
 22.0512  24.0954
 22.1318  24.0879
 22.2123  24.0998
 22.2928  24.2243
 22.3733  24.3579
 22.4538  24.4191
 22.5343  24.4941
 22.6148  24.6029
 22.6953  24.774
 22.7758  24.9436
 22.8563  25.1957
 22.9367  25.5821
 22.9943  25.9658