Folder: scimap-tests/test-data-xrd/xrd-map-34-ID-E (part 5)

File: Data_0018.chi
F:\20151113_APS_34IDE\\Brian\Particle1\OCV\Data_0018.tif
2-Theta Angle (Degrees)
Intensity
       2000
 0.07475  0.0000000E+00
 0.15525  0.0000000E+00
 0.23575  0.0000000E+00
 0.31625  0.0000000E+00
 0.39675  0.0000000E+00
 0.47725  0.0000000E+00
 0.55775  0.0000000E+00
 0.63825  0.0000000E+00
 0.71875  0.0000000E+00
 0.79925  0.0000000E+00
 0.87975  0.0000000E+00
 0.96025  0.0000000E+00
 1.04075  0.0000000E+00
 1.12125  0.0000000E+00
 1.20175  0.0000000E+00
 1.28225  0.0000000E+00
 1.36275  0.0000000E+00
 1.44325  0.0000000E+00
 1.52375  0.0000000E+00
 1.60425  0.0000000E+00
 1.68475  0.0000000E+00
 1.76525  0.0000000E+00
 1.84575  0.0000000E+00
 1.92625  0.0000000E+00
 2.00675  0.0000000E+00
 2.08725  0.0000000E+00
 2.16775  0.0000000E+00
 2.24825  0.0000000E+00
 2.32875  0.0000000E+00
 2.40925  0.0000000E+00
 2.48975  0.0000000E+00
 2.57025  0.0000000E+00
 2.65075  0.0000000E+00
 2.73125  0.0000000E+00
 2.81175  0.0000000E+00
 2.89225  34.7097
 2.97275  35.7104
 3.05325  36.4125
 3.13375  36.0861
 3.21425  35.6799
 3.29475  35.1888
 3.37525  34.1148
 3.45575  34.0705
 3.53625  33.9736
 3.61675  32.802
 3.69725  33.5248
 3.77775  33.1796
 3.85825  32.4733
 3.93875  31.9283
 4.01925  32.4875
 4.09975  32.1754
 4.18025  32.3231
 4.26075  32.2662
 4.34125  32.6984
 4.42175  32.1892
 4.50225  32.5139
 4.58275  32.5382
 4.66325  32.9116
 4.74375  32.5696
 4.82425  32.5986
 4.90475  32.5046
 4.98525  32.8718
 5.06575  33.3884
 5.14625  33.7411
 5.22675  33.7454
 5.30725  34.1866
 5.38775  34.5366
 5.46825  34.3632
 5.54875  34.6021
 5.62925  34.9221
 5.70975  35.3651
 5.79025  35.7182
 5.87075  36.3066
 5.95125  43.9373
 6.03175  39.3
 6.11225  36.8446
 6.19275  37.2082
 6.27325  37.7957
 6.35375  37.8655
 6.43425  38.4807
 6.51475  39.0935
 6.59525  39.6937
 6.67575  40.1111
 6.75625  40.7325
 6.83675  41.4858
 6.91725  41.8135
 6.99775  42.2095
 7.07825  42.7198
 7.15875  42.897
 7.23925  43.6128
 7.31975  43.8171
 7.40025  44.5694
 7.48075  44.3243
 7.56125  44.4545
 7.64175  44.5029
 7.72225  44.3816
 7.80275  44.4209
 7.88325  44.1689
 7.96375  44.2116
 8.04425  43.5166
 8.12475  42.7409
 8.20525  42.0554
 8.28575  41.3293
 8.36625  40.3891
 8.44675  39.1258
 8.52725  38.0624
 8.60775  36.5131
 8.68825  35.4737
 8.76875  34.179
 8.84925  33.0909
 8.92975  31.9176
 9.01025  30.9475
 9.09075  30.0044
 9.17125  29.2731
 9.25175  28.3619
 9.33225  27.8164
 9.41275  27.0529
 9.49325  26.7559
 9.57375  26.1154
 9.65425  25.9228
 9.73475  25.3654
 9.81525  25.1517
 9.89575  24.8248
 9.97625  24.3651
 10.0567  24.2768
 10.1373  24.1261
 10.2178  23.9113
 10.2982  23.7533
 10.3788  23.5315
 10.4593  23.4652
 10.5397  23.1974
 10.6203  23.2776
 10.7007  23.1218
 10.7813  22.835
 10.8618  22.7217
 10.9422  22.7539
 11.0228  22.6185
 11.1033  22.7783
 11.1837  22.7071
 11.2643  22.5992
 11.3447  22.5796
 11.4253  23.215
 11.5058  23.0511
 11.5862  26.896
 11.6668  23.6961
 11.7473  22.6741
 11.8277  22.7657
 11.9083  22.7761
 11.9887  23.8712
 12.0693  28.0302
 12.1498  25.6631
 12.2302  22.9761
 12.3108  22.7444
 12.3913  22.8096
 12.4718  22.716
 12.5523  22.7861
 12.6328  22.9922
 12.7133  23.083
 12.7938  23.2874
 12.8742  23.5956
 12.9548  23.9559
 13.0353  24.2793
 13.1158  25.0488
 13.1963  25.8713
 13.2768  26.7338
 13.3573  27.8266
 13.4378  28.7884
 13.5183  29.3573
 13.5988  29.6958
 13.6793  29.8646
 13.7598  29.6183
 13.8403  29.5733
 13.9208  35.9376
 14.0013  33.1888
 14.0818  27.9455
 14.1623  27.2953
 14.2428  26.5923
 14.3233  26.2625
 14.4038  26.0522
 14.4843  25.8714
 14.5648  25.5831
 14.6453  25.4887
 14.7258  25.2284
 14.8063  25.2455
 14.8868  25.0121
 14.9673  24.8486
 15.0478  24.8486
 15.1283  24.8476
 15.2088  26.0952
 15.2892  24.7223
 15.3698  24.6982
 15.4503  24.6782
 15.5308  24.6803
 15.6113  24.6439
 15.6918  24.5784
 15.7723  24.7232
 15.8528  24.5768
 15.9332  24.5574
 16.0138  24.7044
 16.0943  24.8579
 16.1748  24.9348
 16.2553  25.725
 16.3358  24.9463
 16.4163  24.6139
 16.4967  24.6895
 16.5773  24.5127
 16.6578  24.5346
 16.7383  24.5431
 16.8188  24.6402
 16.8992  24.4731
 16.9798  24.3284
 17.0603  24.2832
 17.1408  24.1212
 17.2213  24.1756
 17.3017  24.109
 17.3823  24.1466
 17.4628  24.0204
 17.5433  24.0577
 17.6238  23.9466
 17.7042  23.7713
 17.7847  23.9263
 17.8653  23.9244
 17.9458  23.8467
 18.0263  24.3097
 18.1068  24.4834
 18.1872  23.9025
 18.2678  23.6958
 18.3483  23.8904
 18.4288  23.6969
 18.5093  23.6551
 18.5897  23.726
 18.6703  23.4676
 18.7508  23.4765
 18.8313  23.5605
 18.9118  23.6158
 18.9922  23.522
 19.0727  23.6368
 19.1533  23.6534
 19.2338  23.5071
 19.3143  23.5634
 19.3948  23.7601
 19.4752  23.6979
 19.5558  23.9011
 19.6363  24.1466
 19.7168  26.6576
 19.7973  24.6485
 19.8777  25.6406
 19.9582  24.0199
 20.0388  23.9197
 20.1193  23.7637
 20.1998  23.8012
 20.2803  23.8639
 20.3607  23.804
 20.4413  23.8072
 20.5218  23.7132
 20.6023  23.7807
 20.6828  24.1689
 20.7632  25.2029
 20.8438  24.2004
 20.9243  23.9578
 21.0048  24.0318
 21.0853  23.9427
 21.1658  23.919
 21.2462  23.87
 21.3268  23.9945
 21.4073  23.9992
 21.4878  24.0419
 21.5683  24.0419
 21.6487  24.1764
 21.7293  24.317
 21.8098  24.2091
 21.8903  24.1826
 21.9708  24.2995
 22.0512  24.2497
 22.1318  24.419
 22.2123  24.4733
 22.2928  24.409
 22.3733  24.6659
 22.4538  24.6561
 22.5343  24.8768
 22.6148  24.9812
 22.6953  25.1935
 22.7758  25.4566
 22.8563  25.7597
 22.9367  26.1776
 22.9943  27.0763

File: Data_0020.chi
F:\20151113_APS_34IDE\\Brian\Particle1\OCV\Data_0020.tif
2-Theta Angle (Degrees)
Intensity
       2000
 0.07475  0.0000000E+00
 0.15525  0.0000000E+00
 0.23575  0.0000000E+00
 0.31625  0.0000000E+00
 0.39675  0.0000000E+00
 0.47725  0.0000000E+00
 0.55775  0.0000000E+00
 0.63825  0.0000000E+00
 0.71875  0.0000000E+00
 0.79925  0.0000000E+00
 0.87975  0.0000000E+00
 0.96025  0.0000000E+00
 1.04075  0.0000000E+00
 1.12125  0.0000000E+00
 1.20175  0.0000000E+00
 1.28225  0.0000000E+00
 1.36275  0.0000000E+00
 1.44325  0.0000000E+00
 1.52375  0.0000000E+00
 1.60425  0.0000000E+00
 1.68475  0.0000000E+00
 1.76525  0.0000000E+00
 1.84575  0.0000000E+00
 1.92625  0.0000000E+00
 2.00675  0.0000000E+00
 2.08725  0.0000000E+00
 2.16775  0.0000000E+00
 2.24825  0.0000000E+00
 2.32875  0.0000000E+00
 2.40925  0.0000000E+00
 2.48975  0.0000000E+00
 2.57025  0.0000000E+00
 2.65075  0.0000000E+00
 2.73125  0.0000000E+00
 2.81175  0.0000000E+00
 2.89225  34.2673
 2.97275  36.178
 3.05325  35.8825
 3.13375  35.0799
 3.21425  35.2611
 3.29475  34.0184
 3.37525  34.1657
 3.45575  34.4996
 3.53625  33.6896
 3.61675  33.7619
 3.69725  33.035
 3.77775  32.7285
 3.85825  33.0383
 3.93875  32.3262
 4.01925  32.5219
 4.09975  32.7148
 4.18025  32.1013
 4.26075  32.6281
 4.34125  32.7413
 4.42175  32.5687
 4.50225  33.0336
 4.58275  32.4405
 4.66325  32.5932
 4.74375  32.4786
 4.82425  32.6205
 4.90475  32.5643
 4.98525  32.6353
 5.06575  33.2597
 5.14625  33.6438
 5.22675  34.1113
 5.30725  34.6485
 5.38775  34.4116
 5.46825  34.8491
 5.54875  34.7768
 5.62925  35.0568
 5.70975  35.6883
 5.79025  36.0697
 5.87075  36.2115
 5.95125  40.1425
 6.03175  40.3624
 6.11225  36.9624
 6.19275  37.1099
 6.27325  37.6709
 6.35375  38.1065
 6.43425  38.4772
 6.51475  39.2243
 6.59525  39.6578
 6.67575  40.2062
 6.75625  40.6714
 6.83675  41.6869
 6.91725  41.9098
 6.99775  42.2155
 7.07825  42.742
 7.15875  43.3368
 7.23925  43.5923
 7.31975  43.8676
 7.40025  44.3475
 7.48075  44.1915
 7.56125  44.295
 7.64175  44.3468
 7.72225  44.4842
 7.80275  43.9953
 7.88325  44.163
 7.96375  43.7396
 8.04425  43.3129
 8.12475  42.7202
 8.20525  41.9464
 8.28575  40.9243
 8.36625  40.063
 8.44675  39.1942
 8.52725  37.6453
 8.60775  36.297
 8.68825  35.1033
 8.76875  33.9425
 8.84925  32.7335
 8.92975  31.8329
 9.01025  30.56
 9.09075  29.6772
 9.17125  28.9092
 9.25175  28.1762
 9.33225  27.3343
 9.41275  26.8
 9.49325  26.4199
 9.57375  26.1595
 9.65425  25.4378
 9.73475  25.1549
 9.81525  24.8561
 9.89575  24.6219
 9.97625  24.3764
 10.0567  24.2711
 10.1373  24.0009
 10.2178  23.9222
 10.2982  23.6621
 10.3788  23.6362
 10.4593  23.2378
 10.5397  23.0954
 10.6203  23.0023
 10.7007  22.9043
 10.7813  22.7632
 10.8618  22.655
 10.9422  22.5887
 11.0228  22.488
 11.1033  22.455
 11.1837  22.5411
 11.2643  22.5015
 11.3447  22.4214
 11.4253  22.746
 11.5058  22.7121
 11.5862  26.5078
 11.6668  24.4634
 11.7473  22.5789
 11.8277  22.4805
 11.9083  22.4944
 11.9887  23.5309
 12.0693  23.7859
 12.1498  24.1018
 12.2302  22.5817
 12.3108  22.458
 12.3913  23.0193
 12.4718  22.6945
 12.5523  22.6412
 12.6328  22.7976
 12.7133  22.921
 12.7938  22.973
 12.8742  23.4066
 12.9548  23.655
 13.0353  24.1321
 13.1158  24.905
 13.1963  25.5733
 13.2768  26.5786
 13.3573  27.5982
 13.4378  28.5376
 13.5183  29.3181
 13.5988  29.8492
 13.6793  29.6918
 13.7598  29.2156
 13.8403  28.7381
 13.9208  29.6154
 14.0013  28.7519
 14.0818  27.4122
 14.1623  26.9005
 14.2428  26.3697
 14.3233  26.1153
 14.4038  25.9629
 14.4843  25.6624
 14.5648  25.492
 14.6453  25.4111
 14.7258  25.2303
 14.8063  25.078
 14.8868  24.8557
 14.9673  24.8434
 15.0478  24.9961
 15.1283  25.6354
 15.2088  34.0232
 15.2892  25.1336
 15.3698  24.6902
 15.4503  24.4548
 15.5308  24.5936
 15.6113  24.4605
 15.6918  24.5076
 15.7723  24.5078
 15.8528  24.5762
 15.9332  24.6057
 16.0138  24.5035
 16.0943  24.7918
 16.1748  24.7278
 16.2553  25.1938
 16.3358  24.9286
 16.4163  24.5592
 16.4967  24.6758
 16.5773  24.4836
 16.6578  24.4556
 16.7383  24.3184
 16.8188  24.3068
 16.8992  24.2211
 16.9798  24.2886
 17.0603  24.0545
 17.1408  24.0829
 17.2213  24.0368
 17.3017  23.946
 17.3823  24.0392
 17.4628  23.9058
 17.5433  23.8499
 17.6238  23.6756
 17.7042  23.7912
 17.7847  23.8239
 17.8653  23.5784
 17.9458  23.7578
 18.0263  23.9449
 18.1068  25.0567
 18.1872  23.7177
 18.2678  23.5586
 18.3483  23.5196
 18.4288  23.3822
 18.5093  23.4602
 18.5897  23.4342
 18.6703  23.3304
 18.7508  23.4589
 18.8313  23.4009
 18.9118  23.3921
 18.9922  23.2053
 19.0727  23.408
 19.1533  23.3945
 19.2338  23.2724
 19.3143  23.4797
 19.3948  23.5765
 19.4752  23.557
 19.5558  23.6398
 19.6363  23.5424
 19.7168  24.697
 19.7973  24.0627
 19.8777  24.3228
 19.9582  23.5998
 20.0388  23.6195
 20.1193  23.4467
 20.1998  23.5313
 20.2803  23.5647
 20.3607  23.4523
 20.4413  23.5844
 20.5218  23.611
 20.6023  23.7602
 20.6828  23.9062
 20.7632  24.8786
 20.8438  24.1166
 20.9243  23.8508
 21.0048  23.7117
 21.0853  23.7619
 21.1658  23.776
 21.2462  23.6946
 21.3268  23.7043
 21.4073  23.7416
 21.4878  23.7991
 21.5683  23.8357
 21.6487  23.9475
 21.7293  24.0312
 21.8098  24.0905
 21.8903  24.0458
 21.9708  24.1092
 22.0512  24.2218
 22.1318  24.1513
 22.2123  24.243
 22.2928  24.2961
 22.3733  24.3986
 22.4538  24.4721
 22.5343  24.6682
 22.6148  24.7487
 22.6953  25.0276
 22.7758  25.2037
 22.8563  25.2899
 22.9367  25.8492
 22.9943  26.0947

File: Data_0021.chi
F:\20151113_APS_34IDE\\Brian\Particle1\OCV\Data_0021.tif
2-Theta Angle (Degrees)
Intensity
       2000
 0.07475  0.0000000E+00
 0.15525  0.0000000E+00
 0.23575  0.0000000E+00
 0.31625  0.0000000E+00
 0.39675  0.0000000E+00
 0.47725  0.0000000E+00
 0.55775  0.0000000E+00
 0.63825  0.0000000E+00
 0.71875  0.0000000E+00
 0.79925  0.0000000E+00
 0.87975  0.0000000E+00
 0.96025  0.0000000E+00
 1.04075  0.0000000E+00
 1.12125  0.0000000E+00
 1.20175  0.0000000E+00
 1.28225  0.0000000E+00
 1.36275  0.0000000E+00
 1.44325  0.0000000E+00
 1.52375  0.0000000E+00
 1.60425  0.0000000E+00
 1.68475  0.0000000E+00
 1.76525  0.0000000E+00
 1.84575  0.0000000E+00
 1.92625  0.0000000E+00
 2.00675  0.0000000E+00
 2.08725  0.0000000E+00
 2.16775  0.0000000E+00
 2.24825  0.0000000E+00
 2.32875  0.0000000E+00
 2.40925  0.0000000E+00
 2.48975  0.0000000E+00
 2.57025  0.0000000E+00
 2.65075  0.0000000E+00
 2.73125  0.0000000E+00
 2.81175  0.0000000E+00
 2.89225  34.4888
 2.97275  36.6638
 3.05325  36.4866
 3.13375  35.9422
 3.21425  35.2701
 3.29475  34.8916
 3.37525  35.5354
 3.45575  34.4677
 3.53625  33.3881
 3.61675  33.4131
 3.69725  33.1057
 3.77775  33.345
 3.85825  32.5895
 3.93875  32.9851
 4.01925  32.7328
 4.09975  32.6767
 4.18025  32.2979
 4.26075  32.8365
 4.34125  32.6204
 4.42175  32.7231
 4.50225  32.7829
 4.58275  32.8981
 4.66325  33.0631
 4.74375  32.7989
 4.82425  32.5177
 4.90475  32.7653
 4.98525  32.8299
 5.06575  33.2172
 5.14625  33.7755
 5.22675  33.9437
 5.30725  34.0442
 5.38775  34.6521
 5.46825  34.5764
 5.54875  34.8327
 5.62925  35.1293
 5.70975  35.4841
 5.79025  35.5102
 5.87075  36.291
 5.95125  37.8486
 6.03175  37.4336
 6.11225  36.6814
 6.19275  37.2057
 6.27325  37.5572
 6.35375  38.3145
 6.43425  38.5527
 6.51475  38.9719
 6.59525  39.7494
 6.67575  40.1867
 6.75625  40.8375
 6.83675  41.4862
 6.91725  42.0584
 6.99775  42.4167
 7.07825  42.6315
 7.15875  42.916
 7.23925  43.7372
 7.31975  43.9639
 7.40025  44.2607
 7.48075  44.3824
 7.56125  44.3257
 7.64175  44.4781
 7.72225  44.5308
 7.80275  44.3916
 7.88325  43.8692
 7.96375  43.8158
 8.04425  43.3642
 8.12475  42.9746
 8.20525  42.3748
 8.28575  41.1142
 8.36625  40.145
 8.44675  38.9788
 8.52725  37.9883
 8.60775  36.5545
 8.68825  35.4131
 8.76875  34.3582
 8.84925  32.7426
 8.92975  31.7343
 9.01025  30.9302
 9.09075  30.0175
 9.17125  29.2597
 9.25175  28.3497
 9.33225  27.5637
 9.41275  27.0558
 9.49325  26.6529
 9.57375  26.1267
 9.65425  25.6619
 9.73475  25.6266
 9.81525  25.1144
 9.89575  24.8721
 9.97625  24.451
 10.0567  24.3124
 10.1373  23.9343
 10.2178  23.8067
 10.2982  23.6817
 10.3788  23.4853
 10.4593  23.4304
 10.5397  23.4128
 10.6203  23.242
 10.7007  23.0755
 10.7813  22.9745
 10.8618  22.8742
 10.9422  22.7182
 11.0228  22.546
 11.1033  22.5762
 11.1837  22.5067
 11.2643  22.3578
 11.3447  22.4558
 11.4253  22.836
 11.5058  22.7762
 11.5862  26.1725
 11.6668  24.377
 11.7473  22.5907
 11.8277  22.5685
 11.9083  22.3736
 11.9887  22.8798
 12.0693  22.9462
 12.1498  22.8834
 12.2302  22.5299
 12.3108  22.5737
 12.3913  22.5933
 12.4718  22.5679
 12.5523  22.5654
 12.6328  22.8999
 12.7133  22.9423
 12.7938  23.0726
 12.8742  23.3235
 12.9548  23.7775
 13.0353  24.1289
 13.1158  24.7975
 13.1963  25.8568
 13.2768  26.6424
 13.3573  27.5724
 13.4378  28.4352
 13.5183  29.3882
 13.5988  29.7976
 13.6793  29.7377
 13.7598  29.2709
 13.8403  28.9511
 13.9208  29.2489
 14.0013  28.7047
 14.0818  27.3695
 14.1623  27.0458
 14.2428  26.5016
 14.3233  26.1895
 14.4038  25.9551
 14.4843  25.6017
 14.5648  25.6149
 14.6453  25.3471
 14.7258  25.1205
 14.8063  24.9168
 14.8868  24.9561
 14.9673  24.8328
 15.0478  25.1244
 15.1283  25.4022
 15.2088  35.093
 15.2892  25.5379
 15.3698  24.8328
 15.4503  24.5709
 15.5308  24.7009
 15.6113  24.4918
 15.6918  24.5074
 15.7723  24.4479
 15.8528  24.6099
 15.9332  24.6456
 16.0138  24.5489
 16.0943  24.9753
 16.1748  24.8414
 16.2553  25.1614
 16.3358  24.8549
 16.4163  24.6596
 16.4967  24.5381
 16.5773  24.4964
 16.6578  24.4473
 16.7383  24.4369
 16.8188  24.3697
 16.8992  24.1708
 16.9798  24.1412
 17.0603  24.0896
 17.1408  24.1747
 17.2213  24.2686
 17.3017  23.9941
 17.3823  23.9926
 17.4628  23.95
 17.5433  23.7488
 17.6238  23.8589
 17.7042  23.7719
 17.7847  23.7249
 17.8653  23.6737
 17.9458  23.6347
 18.0263  23.9183
 18.1068  24.067
 18.1872  23.8388
 18.2678  23.5057
 18.3483  23.6182
 18.4288  23.5221
 18.5093  23.4619
 18.5897  23.5712
 18.6703  23.4058
 18.7508  23.4463
 18.8313  23.429
 18.9118  23.4336
 18.9922  23.2828
 19.0727  23.5202
 19.1533  23.5023
 19.2338  23.4695
 19.3143  23.5003
 19.3948  23.5603
 19.4752  23.5393
 19.5558  23.5567
 19.6363  23.6645
 19.7168  24.24
 19.7973  24.0182
 19.8777  24.2713
 19.9582  23.778
 20.0388  23.6175
 20.1193  23.5341
 20.1998  23.5127
 20.2803  23.6604
 20.3607  23.6365
 20.4413  23.7439
 20.5218  23.5818
 20.6023  23.7675
 20.6828  23.8673
 20.7632  25.1927
 20.8438  23.9565
 20.9243  23.7883
 21.0048  23.9106
 21.0853  23.7085
 21.1658  23.6853
 21.2462  23.8506
 21.3268  23.7965
 21.4073  23.7459
 21.4878  23.7771
 21.5683  23.9706
 21.6487  24.0834
 21.7293  24.0476
 21.8098  24.0687
 21.8903  24.1188
 21.9708  24.0821
 22.0512  24.1503
 22.1318  24.26
 22.2123  24.3078
 22.2928  24.3566
 22.3733  24.4799
 22.4538  24.5716
 22.5343  24.5605
 22.6148  24.8887
 22.6953  25.1147
 22.7758  25.1831
 22.8563  25.4191
 22.9367  25.8263
 22.9943  26.0985

File: Data_0022.chi
F:\20151113_APS_34IDE\\Brian\Particle1\OCV\Data_0022.tif
2-Theta Angle (Degrees)
Intensity
       2000
 0.07475  0.0000000E+00
 0.15525  0.0000000E+00
 0.23575  0.0000000E+00
 0.31625  0.0000000E+00
 0.39675  0.0000000E+00
 0.47725  0.0000000E+00
 0.55775  0.0000000E+00
 0.63825  0.0000000E+00
 0.71875  0.0000000E+00
 0.79925  0.0000000E+00
 0.87975  0.0000000E+00
 0.96025  0.0000000E+00
 1.04075  0.0000000E+00
 1.12125  0.0000000E+00
 1.20175  0.0000000E+00
 1.28225  0.0000000E+00
 1.36275  0.0000000E+00
 1.44325  0.0000000E+00
 1.52375  0.0000000E+00
 1.60425  0.0000000E+00
 1.68475  0.0000000E+00
 1.76525  0.0000000E+00
 1.84575  0.0000000E+00
 1.92625  0.0000000E+00
 2.00675  0.0000000E+00
 2.08725  0.0000000E+00
 2.16775  0.0000000E+00
 2.24825  0.0000000E+00
 2.32875  0.0000000E+00
 2.40925  0.0000000E+00
 2.48975  0.0000000E+00
 2.57025  0.0000000E+00
 2.65075  0.0000000E+00
 2.73125  0.0000000E+00
 2.81175  0.0000000E+00
 2.89225  35.09
 2.97275  35.8461
 3.05325  35.3267
 3.13375  36.2397
 3.21425  36.2377
 3.29475  35.5851
 3.37525  36.2416
 3.45575  34.7825
 3.53625  34.2484
 3.61675  33.1742
 3.69725  33.2547
 3.77775  33.1534
 3.85825  33.1965
 3.93875  32.8949
 4.01925  33.4407
 4.09975  32.5272
 4.18025  31.8953
 4.26075  32.4183
 4.34125  32.2986
 4.42175  32.414
 4.50225  32.9184
 4.58275  32.8599
 4.66325  32.9156
 4.74375  33.2277
 4.82425  32.6289
 4.90475  32.9992
 4.98525  33.1202
 5.06575  33.6706
 5.14625  34.8781
 5.22675  34.1655
 5.30725  34.3278
 5.38775  34.962
 5.46825  35.1725
 5.54875  34.9812
 5.62925  35.4151
 5.70975  35.3669
 5.79025  35.9841
 5.87075  36.6362
 5.95125  42.1988
 6.03175  49.0579
 6.11225  37.636
 6.19275  37.3963
 6.27325  37.9883
 6.35375  38.6657
 6.43425  38.9045
 6.51475  39.3587
 6.59525  39.6576
 6.67575  40.751
 6.75625  41.0703
 6.83675  41.7847
 6.91725  42.3053
 6.99775  42.3764
 7.07825  43.0747
 7.15875  43.6702
 7.23925  43.9511
 7.31975  44.0824
 7.40025  44.4128
 7.48075  44.6952
 7.56125  44.504
 7.64175  44.7677
 7.72225  44.6915
 7.80275  44.5944
 7.88325  44.4688
 7.96375  44.272
 8.04425  43.9366
 8.12475  43.433
 8.20525  42.2896
 8.28575  41.314
 8.36625  40.4442
 8.44675  39.3722
 8.52725  38.0305
 8.60775  36.5832
 8.68825  35.5889
 8.76875  34.2047
 8.84925  33.2187
 8.92975  32.1564
 9.01025  31.0571
 9.09075  30.1759
 9.17125  29.1727
 9.25175  28.6081
 9.33225  27.67
 9.41275  27.1193
 9.49325  26.832
 9.57375  26.047
 9.65425  25.5942
 9.73475  25.4124
 9.81525  25.0235
 9.89575  24.794
 9.97625  24.5376
 10.0567  24.198
 10.1373  24.1422
 10.2178  23.9668
 10.2982  23.862
 10.3788  23.4765
 10.4593  23.3782
 10.5397  23.2849
 10.6203  23.2007
 10.7007  23.2419
 10.7813  22.9654
 10.8618  22.8961
 10.9422  22.9089
 11.0228  22.688
 11.1033  22.7931
 11.1837  22.6395
 11.2643  22.5418
 11.3447  22.8323
 11.4253  22.8851
 11.5058  22.5971
 11.5862  24.9824
 11.6668  22.8541
 11.7473  22.457
 11.8277  22.4326
 11.9083  22.4219
 11.9887  22.6352
 12.0693  23.1421
 12.1498  23.3484
 12.2302  22.4848
 12.3108  22.494
 12.3913  22.6181
 12.4718  22.5655
 12.5523  22.9679
 12.6328  22.7517
 12.7133  22.8387
 12.7938  23.0682
 12.8742  23.306
 12.9548  23.6047
 13.0353  24.0479
 13.1158  24.8664
 13.1963  25.5862
 13.2768  26.6135
 13.3573  27.6388
 13.4378  28.4227
 13.5183  29.4604
 13.5988  29.852
 13.6793  29.7293
 13.7598  29.3827
 13.8403  29.0179
 13.9208  28.9281
 14.0013  28.3138
 14.0818  27.3697
 14.1623  27.0373
 14.2428  26.6333
 14.3233  26.1483
 14.4038  25.9394
 14.4843  25.6342
 14.5648  25.445
 14.6453  25.4544
 14.7258  25.2012
 14.8063  25.1596
 14.8868  24.8218
 14.9673  24.7906
 15.0478  24.9539
 15.1283  24.8566
 15.2088  25.661
 15.2892  24.7796
 15.3698  24.659
 15.4503  24.4789
 15.5308  24.4334
 15.6113  24.4476
 15.6918  24.6003
 15.7723  24.7631
 15.8528  24.5904
 15.9332  24.7251
 16.0138  24.7787
 16.0943  24.6505
 16.1748  24.8098
 16.2553  25.1732
 16.3358  24.8485
 16.4163  24.7694
 16.4967  24.6881
 16.5773  24.6059
 16.6578  24.4593
 16.7383  24.6349
 16.8188  24.6348
 16.8992  24.3873
 16.9798  24.3181
 17.0603  24.2389
 17.1408  24.2066
 17.2213  24.2516
 17.3017  24.1485
 17.3823  24.0361
 17.4628  23.9236
 17.5433  23.927
 17.6238  23.9062
 17.7042  23.7637
 17.7847  23.8717
 17.8653  23.7397
 17.9458  23.8147
 18.0263  24.3981
 18.1068  24.7921
 18.1872  23.6955
 18.2678  23.5873
 18.3483  23.605
 18.4288  23.5786
 18.5093  23.6645
 18.5897  23.6418
 18.6703  23.6097
 18.7508  23.5016
 18.8313  23.4332
 18.9118  23.4066
 18.9922  23.4715
 19.0727  23.5308
 19.1533  23.5907
 19.2338  23.466
 19.3143  23.6088
 19.3948  23.6838
 19.4752  23.5692
 19.5558  23.6175
 19.6363  23.7106
 19.7168  24.7181
 19.7973  23.9436
 19.8777  24.1863
 19.9582  23.7077
 20.0388  23.6762
 20.1193  23.7301
 20.1998  23.539
 20.2803  23.6446
 20.3607  23.647
 20.4413  23.6823
 20.5218  23.6518
 20.6023  23.8056
 20.6828  23.8725
 20.7632  24.0935
 20.8438  23.7626
 20.9243  23.8662
 21.0048  23.7561
 21.0853  23.8624
 21.1658  23.6747
 21.2462  23.8516
 21.3268  23.8406
 21.4073  23.8364
 21.4878  23.9346
 21.5683  23.8737
 21.6487  23.9608
 21.7293  24.1096
 21.8098  24.1683
 21.8903  24.1121
 21.9708  24.0838
 22.0512  24.1865
 22.1318  24.313
 22.2123  24.2913
 22.2928  24.4369
 22.3733  24.4864
 22.4538  24.637
 22.5343  24.6114
 22.6148  24.8921
 22.6953  25.0545
 22.7758  25.2396
 22.8563  25.4971
 22.9367  25.912
 22.9943  26.14