Folder: scimap-tests/test-data-xrd/xrd-map-34-ID-E (part 4)

File: Data_0014.chi
F:\20151113_APS_34IDE\\Brian\Particle1\OCV\Data_0014.tif
2-Theta Angle (Degrees)
Intensity
       2000
 0.07475  0.0000000E+00
 0.15525  0.0000000E+00
 0.23575  0.0000000E+00
 0.31625  0.0000000E+00
 0.39675  0.0000000E+00
 0.47725  0.0000000E+00
 0.55775  0.0000000E+00
 0.63825  0.0000000E+00
 0.71875  0.0000000E+00
 0.79925  0.0000000E+00
 0.87975  0.0000000E+00
 0.96025  0.0000000E+00
 1.04075  0.0000000E+00
 1.12125  0.0000000E+00
 1.20175  0.0000000E+00
 1.28225  0.0000000E+00
 1.36275  0.0000000E+00
 1.44325  0.0000000E+00
 1.52375  0.0000000E+00
 1.60425  0.0000000E+00
 1.68475  0.0000000E+00
 1.76525  0.0000000E+00
 1.84575  0.0000000E+00
 1.92625  0.0000000E+00
 2.00675  0.0000000E+00
 2.08725  0.0000000E+00
 2.16775  0.0000000E+00
 2.24825  0.0000000E+00
 2.32875  0.0000000E+00
 2.40925  0.0000000E+00
 2.48975  0.0000000E+00
 2.57025  0.0000000E+00
 2.65075  0.0000000E+00
 2.73125  0.0000000E+00
 2.81175  0.0000000E+00
 2.89225  34.8879
 2.97275  34.7402
 3.05325  35.4114
 3.13375  34.5888
 3.21425  35.5637
 3.29475  34.5018
 3.37525  34.7018
 3.45575  33.591
 3.53625  33.5764
 3.61675  32.8195
 3.69725  33.331
 3.77775  32.1991
 3.85825  32.1363
 3.93875  32.0048
 4.01925  32.5284
 4.09975  32.4944
 4.18025  32.3822
 4.26075  32.1326
 4.34125  32.0371
 4.42175  32.1018
 4.50225  32.1458
 4.58275  32.6232
 4.66325  32.7506
 4.74375  32.4888
 4.82425  32.2709
 4.90475  32.8485
 4.98525  32.9272
 5.06575  33.4271
 5.14625  33.6139
 5.22675  33.5443
 5.30725  34.0847
 5.38775  34.4348
 5.46825  34.5925
 5.54875  34.6522
 5.62925  35.0097
 5.70975  35.2946
 5.79025  35.592
 5.87075  36.069
 5.95125  40.9858
 6.03175  39.5927
 6.11225  37.1906
 6.19275  36.8591
 6.27325  37.6062
 6.35375  37.9911
 6.43425  38.3627
 6.51475  39.2001
 6.59525  39.6369
 6.67575  40.3451
 6.75625  40.8841
 6.83675  41.7434
 6.91725  42.049
 6.99775  42.81
 7.07825  43.1375
 7.15875  43.228
 7.23925  43.6393
 7.31975  43.9042
 7.40025  43.9564
 7.48075  44.5018
 7.56125  44.7249
 7.64175  45.1187
 7.72225  44.7913
 7.80275  44.7268
 7.88325  44.4739
 7.96375  44.1849
 8.04425  43.7796
 8.12475  43.233
 8.20525  42.6226
 8.28575  41.5815
 8.36625  40.6327
 8.44675  39.3549
 8.52725  38.2471
 8.60775  36.7574
 8.68825  35.6992
 8.76875  34.4315
 8.84925  33.5124
 8.92975  32.3717
 9.01025  31.5272
 9.09075  30.5724
 9.17125  29.7302
 9.25175  28.8955
 9.33225  28.1272
 9.41275  27.4585
 9.49325  27.0795
 9.57375  26.5873
 9.65425  26.297
 9.73475  25.8262
 9.81525  25.5178
 9.89575  25.1673
 9.97625  24.8482
 10.0567  24.4344
 10.1373  24.2051
 10.2178  24.2327
 10.2982  24.1922
 10.3788  23.8577
 10.4593  23.5652
 10.5397  23.5444
 10.6203  23.3237
 10.7007  23.2097
 10.7813  23.0864
 10.8618  23.1782
 10.9422  23.231
 11.0228  23.0272
 11.1033  22.8867
 11.1837  22.7656
 11.2643  22.7518
 11.3447  23.0129
 11.4253  23.285
 11.5058  23.6836
 11.5862  32.3627
 11.6668  24.5429
 11.7473  22.9523
 11.8277  22.8322
 11.9083  22.8003
 11.9887  24.1697
 12.0693  24.5406
 12.1498  23.4977
 12.2302  22.7923
 12.3108  22.8726
 12.3913  22.8186
 12.4718  22.9007
 12.5523  23.0518
 12.6328  23.1451
 12.7133  23.3814
 12.7938  23.5519
 12.8742  23.6927
 12.9548  23.8818
 13.0353  24.3987
 13.1158  25.0911
 13.1963  25.8822
 13.2768  26.8613
 13.3573  28.0342
 13.4378  28.7439
 13.5183  29.7611
 13.5988  29.9967
 13.6793  30.0005
 13.7598  29.74
 13.8403  29.5768
 13.9208  33.9316
 14.0013  34.6895
 14.0818  28.2009
 14.1623  27.4098
 14.2428  26.9406
 14.3233  26.4341
 14.4038  26.2869
 14.4843  25.9014
 14.5648  25.7836
 14.6453  25.5839
 14.7258  25.5132
 14.8063  25.2845
 14.8868  25.3249
 14.9673  25.2536
 15.0478  25.3466
 15.1283  25.698
 15.2088  28.5724
 15.2892  25.4741
 15.3698  24.9241
 15.4503  24.9436
 15.5308  24.8789
 15.6113  24.8321
 15.6918  24.8324
 15.7723  24.8915
 15.8528  24.781
 15.9332  25.1076
 16.0138  24.873
 16.0943  25.0692
 16.1748  25.1949
 16.2553  26.977
 16.3358  25.3584
 16.4163  24.9461
 16.4967  24.9629
 16.5773  24.9423
 16.6578  24.6982
 16.7383  24.701
 16.8188  24.7652
 16.8992  24.5713
 16.9798  24.5935
 17.0603  24.477
 17.1408  24.4385
 17.2213  24.4987
 17.3017  24.4077
 17.3823  24.2811
 17.4628  24.358
 17.5433  24.2151
 17.6238  24.2679
 17.7042  24.242
 17.7847  23.9846
 17.8653  24.0741
 17.9458  24.1256
 18.0263  24.6323
 18.1068  26.2743
 18.1872  24.4652
 18.2678  23.9978
 18.3483  24.0146
 18.4288  24.0053
 18.5093  23.9032
 18.5897  23.8802
 18.6703  23.6985
 18.7508  23.7635
 18.8313  23.9837
 18.9118  23.9444
 18.9922  23.9001
 19.0727  23.7955
 19.1533  23.845
 19.2338  23.8489
 19.3143  23.8975
 19.3948  23.859
 19.4752  24.0218
 19.5558  24.1631
 19.6363  24.9449
 19.7168  27.3492
 19.7973  25.3158
 19.8777  26.1489
 19.9582  24.3885
 20.0388  24.0517
 20.1193  24.1382
 20.1998  24.0552
 20.2803  24.0169
 20.3607  23.9609
 20.4413  24.0461
 20.5218  24.0692
 20.6023  24.2002
 20.6828  24.4844
 20.7632  26.6005
 20.8438  24.7728
 20.9243  24.2493
 21.0048  24.2351
 21.0853  24.2031
 21.1658  24.1573
 21.2462  24.1505
 21.3268  24.2119
 21.4073  24.2037
 21.4878  24.4262
 21.5683  24.4064
 21.6487  24.3924
 21.7293  24.3677
 21.8098  24.3969
 21.8903  24.4903
 21.9708  24.4441
 22.0512  24.5946
 22.1318  24.8633
 22.2123  24.5473
 22.2928  24.8489
 22.3733  24.9745
 22.4538  24.9667
 22.5343  25.146
 22.6148  25.2112
 22.6953  25.2921
 22.7758  25.5776
 22.8563  25.8455
 22.9367  26.362
 22.9943  26.8702

File: Data_0015.chi
F:\20151113_APS_34IDE\\Brian\Particle1\OCV\Data_0015.tif
2-Theta Angle (Degrees)
Intensity
       2000
 0.07475  0.0000000E+00
 0.15525  0.0000000E+00
 0.23575  0.0000000E+00
 0.31625  0.0000000E+00
 0.39675  0.0000000E+00
 0.47725  0.0000000E+00
 0.55775  0.0000000E+00
 0.63825  0.0000000E+00
 0.71875  0.0000000E+00
 0.79925  0.0000000E+00
 0.87975  0.0000000E+00
 0.96025  0.0000000E+00
 1.04075  0.0000000E+00
 1.12125  0.0000000E+00
 1.20175  0.0000000E+00
 1.28225  0.0000000E+00
 1.36275  0.0000000E+00
 1.44325  0.0000000E+00
 1.52375  0.0000000E+00
 1.60425  0.0000000E+00
 1.68475  0.0000000E+00
 1.76525  0.0000000E+00
 1.84575  0.0000000E+00
 1.92625  0.0000000E+00
 2.00675  0.0000000E+00
 2.08725  0.0000000E+00
 2.16775  0.0000000E+00
 2.24825  0.0000000E+00
 2.32875  0.0000000E+00
 2.40925  0.0000000E+00
 2.48975  0.0000000E+00
 2.57025  0.0000000E+00
 2.65075  0.0000000E+00
 2.73125  0.0000000E+00
 2.81175  0.0000000E+00
 2.89225  35.4998
 2.97275  37.2015
 3.05325  36.251
 3.13375  36.2946
 3.21425  35.0805
 3.29475  34.7965
 3.37525  34.9229
 3.45575  33.9038
 3.53625  34.0581
 3.61675  33.3762
 3.69725  33.2865
 3.77775  32.9552
 3.85825  32.9957
 3.93875  32.4741
 4.01925  32.8797
 4.09975  32.6772
 4.18025  32.4707
 4.26075  32.7359
 4.34125  32.8617
 4.42175  33.0128
 4.50225  33.0494
 4.58275  32.422
 4.66325  32.8377
 4.74375  33.1379
 4.82425  32.6854
 4.90475  33.2925
 4.98525  33.2351
 5.06575  33.4185
 5.14625  34.0005
 5.22675  33.8126
 5.30725  34.158
 5.38775  34.7063
 5.46825  34.8885
 5.54875  35.047
 5.62925  35.4347
 5.70975  35.706
 5.79025  36.0598
 5.87075  36.3799
 5.95125  43.2711
 6.03175  43.2341
 6.11225  37.373
 6.19275  37.3202
 6.27325  37.5335
 6.35375  38.2426
 6.43425  38.8929
 6.51475  39.709
 6.59525  39.7711
 6.67575  40.6124
 6.75625  41.0203
 6.83675  41.6194
 6.91725  42.1138
 6.99775  42.5096
 7.07825  43.0529
 7.15875  43.3489
 7.23925  43.7651
 7.31975  44.2159
 7.40025  44.3573
 7.48075  44.6172
 7.56125  44.8188
 7.64175  44.9409
 7.72225  44.9501
 7.80275  44.6999
 7.88325  44.6772
 7.96375  44.1632
 8.04425  43.6647
 8.12475  43.3804
 8.20525  42.3969
 8.28575  41.6713
 8.36625  40.7108
 8.44675  39.2872
 8.52725  38.2484
 8.60775  37.2174
 8.68825  35.8427
 8.76875  34.8275
 8.84925  33.4799
 8.92975  32.3624
 9.01025  31.5873
 9.09075  30.5373
 9.17125  29.732
 9.25175  28.9756
 9.33225  28.3904
 9.41275  27.5527
 9.49325  27.0863
 9.57375  26.528
 9.65425  26.2506
 9.73475  25.7293
 9.81525  25.7156
 9.89575  25.1195
 9.97625  24.9704
 10.0567  24.738
 10.1373  24.663
 10.2178  24.4179
 10.2982  24.335
 10.3788  24.1616
 10.4593  23.9324
 10.5397  23.8644
 10.6203  23.5681
 10.7007  23.5762
 10.7813  23.3391
 10.8618  23.3626
 10.9422  23.184
 11.0228  23.0904
 11.1033  23.1164
 11.1837  23.0191
 11.2643  22.9068
 11.3447  23.0131
 11.4253  23.2275
 11.5058  23.4384
 11.5862  28.8682
 11.6668  23.7749
 11.7473  22.9305
 11.8277  22.9146
 11.9083  22.9228
 11.9887  23.7354
 12.0693  24.6964
 12.1498  24.0752
 12.2302  22.9346
 12.3108  23.1309
 12.3913  22.981
 12.4718  23.1196
 12.5523  23.125
 12.6328  23.3564
 12.7133  23.4669
 12.7938  23.5878
 12.8742  23.8233
 12.9548  24.1137
 13.0353  24.5655
 13.1158  25.2934
 13.1963  25.9642
 13.2768  27.148
 13.3573  28.0583
 13.4378  28.9935
 13.5183  29.7482
 13.5988  30.1427
 13.6793  30.1379
 13.7598  29.8673
 13.8403  30.0362
 13.9208  35.1949
 14.0013  32.6567
 14.0818  28.2294
 14.1623  27.5887
 14.2428  26.9848
 14.3233  26.7298
 14.4038  26.4026
 14.4843  26.0477
 14.5648  26.0466
 14.6453  25.7727
 14.7258  25.6203
 14.8063  25.3982
 14.8868  25.4594
 14.9673  25.4304
 15.0478  25.3553
 15.1283  25.4151
 15.2088  26.4282
 15.2892  25.2143
 15.3698  24.9759
 15.4503  24.8215
 15.5308  24.8901
 15.6113  24.8586
 15.6918  25.0087
 15.7723  25.0429
 15.8528  24.9431
 15.9332  24.9521
 16.0138  25.2154
 16.0943  25.075
 16.1748  25.358
 16.2553  26.8654
 16.3358  25.3839
 16.4163  25.2579
 16.4967  25.1434
 16.5773  25.2239
 16.6578  24.9502
 16.7383  24.7848
 16.8188  24.7644
 16.8992  24.8715
 16.9798  24.7639
 17.0603  24.5853
 17.1408  24.5901
 17.2213  24.4847
 17.3017  24.5646
 17.3823  24.3477
 17.4628  24.2413
 17.5433  24.3499
 17.6238  24.3072
 17.7042  24.2821
 17.7847  24.2746
 17.8653  24.186
 17.9458  24.3846
 18.0263  24.9341
 18.1068  27.1477
 18.1872  24.5482
 18.2678  24.1175
 18.3483  24.0347
 18.4288  24.1555
 18.5093  23.9028
 18.5897  24.07
 18.6703  23.8104
 18.7508  23.9023
 18.8313  23.7582
 18.9118  23.8542
 18.9922  23.8639
 19.0727  23.969
 19.1533  23.8266
 19.2338  23.899
 19.3143  24.0368
 19.3948  24.0553
 19.4752  23.9861
 19.5558  24.2188
 19.6363  24.5836
 19.7168  27.3608
 19.7973  25.3408
 19.8777  26.6609
 19.9582  24.3849
 20.0388  24.237
 20.1193  24.2039
 20.1998  24.1451
 20.2803  24.1074
 20.3607  24.0305
 20.4413  24.1758
 20.5218  24.1519
 20.6023  24.3579
 20.6828  24.7359
 20.7632  26.146
 20.8438  24.6149
 20.9243  24.4167
 21.0048  24.3115
 21.0853  24.4007
 21.1658  24.1163
 21.2462  24.2453
 21.3268  24.1604
 21.4073  24.2929
 21.4878  24.406
 21.5683  24.3989
 21.6487  24.54
 21.7293  24.5555
 21.8098  24.6243
 21.8903  24.4746
 21.9708  24.5346
 22.0512  24.5667
 22.1318  24.7124
 22.2123  24.7453
 22.2928  24.8029
 22.3733  25.1194
 22.4538  25.0058
 22.5343  25.2209
 22.6148  25.3899
 22.6953  25.4461
 22.7758  25.6003
 22.8563  25.8462
 22.9367  26.3397
 22.9943  26.5958

File: Data_0016.chi
F:\20151113_APS_34IDE\\Brian\Particle1\OCV\Data_0016.tif
2-Theta Angle (Degrees)
Intensity
       2000
 0.07475  0.0000000E+00
 0.15525  0.0000000E+00
 0.23575  0.0000000E+00
 0.31625  0.0000000E+00
 0.39675  0.0000000E+00
 0.47725  0.0000000E+00
 0.55775  0.0000000E+00
 0.63825  0.0000000E+00
 0.71875  0.0000000E+00
 0.79925  0.0000000E+00
 0.87975  0.0000000E+00
 0.96025  0.0000000E+00
 1.04075  0.0000000E+00
 1.12125  0.0000000E+00
 1.20175  0.0000000E+00
 1.28225  0.0000000E+00
 1.36275  0.0000000E+00
 1.44325  0.0000000E+00
 1.52375  0.0000000E+00
 1.60425  0.0000000E+00
 1.68475  0.0000000E+00
 1.76525  0.0000000E+00
 1.84575  0.0000000E+00
 1.92625  0.0000000E+00
 2.00675  0.0000000E+00
 2.08725  0.0000000E+00
 2.16775  0.0000000E+00
 2.24825  0.0000000E+00
 2.32875  0.0000000E+00
 2.40925  0.0000000E+00
 2.48975  0.0000000E+00
 2.57025  0.0000000E+00
 2.65075  0.0000000E+00
 2.73125  0.0000000E+00
 2.81175  0.0000000E+00
 2.89225  34.6635
 2.97275  36.7036
 3.05325  35.7493
 3.13375  35.442
 3.21425  34.7911
 3.29475  35.1952
 3.37525  34.3525
 3.45575  34.4477
 3.53625  34.5685
 3.61675  33.9879
 3.69725  33.3234
 3.77775  33.0164
 3.85825  32.7279
 3.93875  32.737
 4.01925  32.9194
 4.09975  32.8762
 4.18025  32.818
 4.26075  32.5885
 4.34125  32.6513
 4.42175  32.6096
 4.50225  32.4962
 4.58275  32.5372
 4.66325  32.6275
 4.74375  32.5692
 4.82425  32.6763
 4.90475  32.9505
 4.98525  33.2576
 5.06575  33.6273
 5.14625  33.924
 5.22675  33.9829
 5.30725  34.3823
 5.38775  35.0359
 5.46825  34.9568
 5.54875  35.0443
 5.62925  35.2782
 5.70975  35.2941
 5.79025  35.5137
 5.87075  36.4645
 5.95125  42.8285
 6.03175  43.8722
 6.11225  37.3498
 6.19275  37.3255
 6.27325  37.5495
 6.35375  38.2376
 6.43425  38.6168
 6.51475  38.9667
 6.59525  39.6781
 6.67575  40.3258
 6.75625  41.0638
 6.83675  41.5875
 6.91725  41.9186
 6.99775  42.3625
 7.07825  43.0711
 7.15875  43.4205
 7.23925  43.6636
 7.31975  44.0704
 7.40025  44.4387
 7.48075  44.603
 7.56125  44.3601
 7.64175  44.5182
 7.72225  44.7533
 7.80275  44.3559
 7.88325  44.2448
 7.96375  44.104
 8.04425  43.5115
 8.12475  43.1803
 8.20525  42.3621
 8.28575  41.2704
 8.36625  40.6463
 8.44675  39.1978
 8.52725  38.0849
 8.60775  36.5743
 8.68825  35.4394
 8.76875  34.1622
 8.84925  33.417
 8.92975  32.2784
 9.01025  30.872
 9.09075  30.2399
 9.17125  29.4278
 9.25175  28.6381
 9.33225  28.0379
 9.41275  27.5744
 9.49325  27.0175
 9.57375  26.4772
 9.65425  26.0398
 9.73475  25.6857
 9.81525  25.3243
 9.89575  25.0462
 9.97625  24.9954
 10.0567  24.6122
 10.1373  24.5023
 10.2178  24.3057
 10.2982  23.9397
 10.3788  23.7954
 10.4593  23.6614
 10.5397  23.435
 10.6203  23.3702
 10.7007  23.1766
 10.7813  23.0579
 10.8618  23.1002
 10.9422  23.1537
 11.0228  22.8685
 11.1033  22.8845
 11.1837  22.8768
 11.2643  22.7851
 11.3447  22.9537
 11.4253  23.322
 11.5058  24.104
 11.5862  43.2682
 11.6668  25.1116
 11.7473  23.1244
 11.8277  22.8996
 11.9083  23.0701
 11.9887  24.4946
 12.0693  25.1833
 12.1498  24.5153
 12.2302  22.8942
 12.3108  22.9391
 12.3913  22.7816
 12.4718  22.925
 12.5523  23.0964
 12.6328  23.0156
 12.7133  23.3486
 12.7938  23.3699
 12.8742  23.6327
 12.9548  23.979
 13.0353  24.3683
 13.1158  25.0959
 13.1963  25.9893
 13.2768  27.1317
 13.3573  28.0733
 13.4378  28.9929
 13.5183  29.5206
 13.5988  30.0656
 13.6793  29.9668
 13.7598  29.6775
 13.8403  29.5398
 13.9208  33.2355
 14.0013  32.3486
 14.0818  28.1554
 14.1623  27.525
 14.2428  26.8405
 14.3233  26.4961
 14.4038  26.3309
 14.4843  25.9713
 14.5648  25.7484
 14.6453  25.7237
 14.7258  25.4581
 14.8063  25.3659
 14.8868  25.1762
 14.9673  25.0734
 15.0478  25.1128
 15.1283  25.3301
 15.2088  26.9157
 15.2892  25.1597
 15.3698  25.0293
 15.4503  24.6039
 15.5308  24.9556
 15.6113  24.9196
 15.6918  24.9359
 15.7723  24.9084
 15.8528  24.8827
 15.9332  24.9251
 16.0138  24.9384
 16.0943  24.9671
 16.1748  25.145
 16.2553  26.3274
 16.3358  25.3503
 16.4163  25.0349
 16.4967  24.8945
 16.5773  24.7981
 16.6578  24.7696
 16.7383  24.7843
 16.8188  24.7156
 16.8992  24.5497
 16.9798  24.6024
 17.0603  24.4515
 17.1408  24.3623
 17.2213  24.3814
 17.3017  24.3437
 17.3823  24.2229
 17.4628  24.3173
 17.5433  24.126
 17.6238  24.0017
 17.7042  24.0863
 17.7847  24.02
 17.8653  23.9698
 17.9458  24.1943
 18.0263  24.723
 18.1068  26.2257
 18.1872  24.245
 18.2678  23.9403
 18.3483  23.9397
 18.4288  23.9205
 18.5093  23.8068
 18.5897  23.8676
 18.6703  23.7623
 18.7508  23.6122
 18.8313  23.7514
 18.9118  23.7873
 18.9922  23.6452
 19.0727  23.9322
 19.1533  23.84
 19.2338  23.7399
 19.3143  23.8825
 19.3948  23.9678
 19.4752  23.9222
 19.5558  24.0566
 19.6363  24.6848
 19.7168  28.7492
 19.7973  26.7073
 19.8777  29.05
 19.9582  24.5875
 20.0388  24.1147
 20.1193  24.2106
 20.1998  23.9923
 20.2803  24.0616
 20.3607  24.0004
 20.4413  24.0998
 20.5218  24.0153
 20.6023  24.2742
 20.6828  24.8491
 20.7632  28.522
 20.8438  24.7809
 20.9243  24.422
 21.0048  24.2819
 21.0853  24.1457
 21.1658  24.0662
 21.2462  24.1501
 21.3268  24.3458
 21.4073  24.2954
 21.4878  24.1843
 21.5683  24.2897
 21.6487  24.4664
 21.7293  24.4819
 21.8098  24.4819
 21.8903  24.3595
 21.9708  24.4846
 22.0512  24.6436
 22.1318  24.6503
 22.2123  24.6491
 22.2928  24.8033
 22.3733  24.822
 22.4538  24.787
 22.5343  25.0018
 22.6148  25.2212
 22.6953  25.3532
 22.7758  25.5192
 22.8563  25.7049
 22.9367  26.1784
 22.9943  26.5068

File: Data_0017.chi
F:\20151113_APS_34IDE\\Brian\Particle1\OCV\Data_0017.tif
2-Theta Angle (Degrees)
Intensity
       2000
 0.07475  0.0000000E+00
 0.15525  0.0000000E+00
 0.23575  0.0000000E+00
 0.31625  0.0000000E+00
 0.39675  0.0000000E+00
 0.47725  0.0000000E+00
 0.55775  0.0000000E+00
 0.63825  0.0000000E+00
 0.71875  0.0000000E+00
 0.79925  0.0000000E+00
 0.87975  0.0000000E+00
 0.96025  0.0000000E+00
 1.04075  0.0000000E+00
 1.12125  0.0000000E+00
 1.20175  0.0000000E+00
 1.28225  0.0000000E+00
 1.36275  0.0000000E+00
 1.44325  0.0000000E+00
 1.52375  0.0000000E+00
 1.60425  0.0000000E+00
 1.68475  0.0000000E+00
 1.76525  0.0000000E+00
 1.84575  0.0000000E+00
 1.92625  0.0000000E+00
 2.00675  0.0000000E+00
 2.08725  0.0000000E+00
 2.16775  0.0000000E+00
 2.24825  0.0000000E+00
 2.32875  0.0000000E+00
 2.40925  0.0000000E+00
 2.48975  0.0000000E+00
 2.57025  0.0000000E+00
 2.65075  0.0000000E+00
 2.73125  0.0000000E+00
 2.81175  0.0000000E+00
 2.89225  34.5544
 2.97275  34.3622
 3.05325  36.0319
 3.13375  35.57
 3.21425  35.5251
 3.29475  33.8678
 3.37525  34.6984
 3.45575  34.483
 3.53625  33.6331
 3.61675  33.2381
 3.69725  33.5304
 3.77775  33.054
 3.85825  32.896
 3.93875  33.0566
 4.01925  33.2402
 4.09975  32.6319
 4.18025  32.5649
 4.26075  32.1003
 4.34125  32.4166
 4.42175  32.5756
 4.50225  32.5913
 4.58275  33.1255
 4.66325  32.9286
 4.74375  32.9562
 4.82425  32.7867
 4.90475  32.8935
 4.98525  33.2134
 5.06575  33.1606
 5.14625  33.5812
 5.22675  34.2233
 5.30725  34.4474
 5.38775  34.5258
 5.46825  34.6834
 5.54875  35.1045
 5.62925  35.4341
 5.70975  35.747
 5.79025  35.6272
 5.87075  36.6384
 5.95125  42.7502
 6.03175  44.523
 6.11225  37.281
 6.19275  36.8198
 6.27325  37.3824
 6.35375  37.9441
 6.43425  38.5983
 6.51475  38.935
 6.59525  39.3294
 6.67575  40.2558
 6.75625  41.0201
 6.83675  41.6376
 6.91725  42.1046
 6.99775  42.0366
 7.07825  42.5374
 7.15875  43.0143
 7.23925  43.4707
 7.31975  43.6904
 7.40025  44.3635
 7.48075  44.3735
 7.56125  44.4252
 7.64175  44.4961
 7.72225  44.5323
 7.80275  44.7222
 7.88325  43.7925
 7.96375  43.8249
 8.04425  43.5909
 8.12475  43.0399
 8.20525  41.9812
 8.28575  40.937
 8.36625  40.2124
 8.44675  38.9668
 8.52725  37.7128
 8.60775  36.7775
 8.68825  35.3564
 8.76875  34.1616
 8.84925  33.1817
 8.92975  31.9399
 9.01025  30.7907
 9.09075  29.9687
 9.17125  29.1303
 9.25175  28.3545
 9.33225  27.472
 9.41275  27.3358
 9.49325  26.7834
 9.57375  26.1644
 9.65425  25.5503
 9.73475  25.3755
 9.81525  25.1378
 9.89575  24.8838
 9.97625  24.6157
 10.0567  24.4629
 10.1373  24.1177
 10.2178  23.955
 10.2982  23.9416
 10.3788  23.6551
 10.4593  23.3139
 10.5397  23.345
 10.6203  23.2384
 10.7007  23.2167
 10.7813  23.2103
 10.8618  22.8635
 10.9422  22.8657
 11.0228  22.7634
 11.1033  22.7759
 11.1837  22.8622
 11.2643  22.691
 11.3447  22.9186
 11.4253  23.3337
 11.5058  23.8366
 11.5862  35.5175
 11.6668  23.6682
 11.7473  22.7939
 11.8277  22.9537
 11.9083  22.7609
 11.9887  23.4728
 12.0693  24.3282
 12.1498  25.7691
 12.2302  22.8262
 12.3108  22.8044
 12.3913  22.7787
 12.4718  22.7922
 12.5523  22.7585
 12.6328  23.0186
 12.7133  23.2069
 12.7938  23.325
 12.8742  23.6099
 12.9548  23.9244
 13.0353  24.2102
 13.1158  25.0467
 13.1963  25.683
 13.2768  26.7794
 13.3573  27.9012
 13.4378  28.5038
 13.5183  29.4723
 13.5988  30.1382
 13.6793  30.04
 13.7598  29.7751
 13.8403  30.0307
 13.9208  42.7713
 14.0013  35.3454
 14.0818  28.1844
 14.1623  27.1787
 14.2428  26.7204
 14.3233  26.316
 14.4038  26.1088
 14.4843  25.7859
 14.5648  25.8123
 14.6453  25.5931
 14.7258  25.3397
 14.8063  25.137
 14.8868  25.0954
 14.9673  24.8989
 15.0478  25.1029
 15.1283  25.0783
 15.2088  26.8571
 15.2892  24.9537
 15.3698  24.6805
 15.4503  24.5934
 15.5308  24.5279
 15.6113  24.5052
 15.6918  24.5055
 15.7723  24.5977
 15.8528  24.5667
 15.9332  24.7599
 16.0138  24.8129
 16.0943  24.8252
 16.1748  24.988
 16.2553  25.8994
 16.3358  25.0183
 16.4163  24.8403
 16.4967  24.654
 16.5773  24.5992
 16.6578  24.477
 16.7383  24.5222
 16.8188  24.5396
 16.8992  24.4972
 16.9798  24.4582
 17.0603  24.3277
 17.1408  24.2872
 17.2213  24.0902
 17.3017  24.2181
 17.3823  24.2719
 17.4628  24.0873
 17.5433  24.0725
 17.6238  23.9505
 17.7042  24.0233
 17.7847  24.0136
 17.8653  23.8977
 17.9458  24.0633
 18.0263  25.8403
 18.1068  26.9234
 18.1872  24.255
 18.2678  23.9055
 18.3483  23.7538
 18.4288  23.8345
 18.5093  23.7176
 18.5897  23.7252
 18.6703  23.5195
 18.7508  23.6926
 18.8313  23.6549
 18.9118  23.639
 18.9922  23.5342
 19.0727  23.588
 19.1533  23.5837
 19.2338  23.6178
 19.3143  23.7896
 19.3948  23.7417
 19.4752  23.9734
 19.5558  24.5225
 19.6363  24.606
 19.7168  29.6837
 19.7973  25.7305
 19.8777  26.6898
 19.9582  24.3326
 20.0388  23.8845
 20.1193  23.777
 20.1998  23.8729
 20.2803  23.8599
 20.3607  23.75
 20.4413  23.9734
 20.5218  23.7522
 20.6023  24.1029
 20.6828  24.2609
 20.7632  26.1183
 20.8438  24.2865
 20.9243  23.9938
 21.0048  24.0046
 21.0853  23.847
 21.1658  23.9313
 21.2462  24.0048
 21.3268  24.0468
 21.4073  24.0556
 21.4878  24.1266
 21.5683  24.1586
 21.6487  24.2477
 21.7293  24.1882
 21.8098  24.2493
 21.8903  24.1707
 21.9708  24.2921
 22.0512  24.3268
 22.1318  24.4106
 22.2123  24.384
 22.2928  24.497
 22.3733  24.6355
 22.4538  24.8475
 22.5343  24.85
 22.6148  24.8937
 22.6953  25.1592
 22.7758  25.3119
 22.8563  25.541
 22.9367  25.9364
 22.9943  26.3513