Folder: scimap-tests/test-data-xrd/xrd-map-34-ID-E (part 13)

File: Data_0053.chi
F:\20151113_APS_34IDE\\Brian\Particle1\OCV\Data_0053.tif
2-Theta Angle (Degrees)
Intensity
       2000
 0.07475  0.0000000E+00
 0.15525  0.0000000E+00
 0.23575  0.0000000E+00
 0.31625  0.0000000E+00
 0.39675  0.0000000E+00
 0.47725  0.0000000E+00
 0.55775  0.0000000E+00
 0.63825  0.0000000E+00
 0.71875  0.0000000E+00
 0.79925  0.0000000E+00
 0.87975  0.0000000E+00
 0.96025  0.0000000E+00
 1.04075  0.0000000E+00
 1.12125  0.0000000E+00
 1.20175  0.0000000E+00
 1.28225  0.0000000E+00
 1.36275  0.0000000E+00
 1.44325  0.0000000E+00
 1.52375  0.0000000E+00
 1.60425  0.0000000E+00
 1.68475  0.0000000E+00
 1.76525  0.0000000E+00
 1.84575  0.0000000E+00
 1.92625  0.0000000E+00
 2.00675  0.0000000E+00
 2.08725  0.0000000E+00
 2.16775  0.0000000E+00
 2.24825  0.0000000E+00
 2.32875  0.0000000E+00
 2.40925  0.0000000E+00
 2.48975  0.0000000E+00
 2.57025  0.0000000E+00
 2.65075  0.0000000E+00
 2.73125  0.0000000E+00
 2.81175  0.0000000E+00
 2.89225  33.9535
 2.97275  37.2104
 3.05325  35.9123
 3.13375  35.7104
 3.21425  36.2475
 3.29475  34.7669
 3.37525  35.2272
 3.45575  34.3401
 3.53625  33.6982
 3.61675  33.7063
 3.69725  33.0317
 3.77775  32.7442
 3.85825  32.8792
 3.93875  32.3052
 4.01925  32.3408
 4.09975  31.9489
 4.18025  31.9761
 4.26075  32.1921
 4.34125  32.4818
 4.42175  32.5608
 4.50225  32.474
 4.58275  32.4823
 4.66325  32.6072
 4.74375  32.4043
 4.82425  32.349
 4.90475  33.0895
 4.98525  33.1211
 5.06575  33.1522
 5.14625  33.1992
 5.22675  33.6407
 5.30725  33.8634
 5.38775  34.3621
 5.46825  34.5106
 5.54875  34.942
 5.62925  34.9753
 5.70975  35.1073
 5.79025  35.3409
 5.87075  36.4881
 5.95125  44.2031
 6.03175  44.0214
 6.11225  37.2498
 6.19275  37.088
 6.27325  37.6532
 6.35375  38.0105
 6.43425  38.6692
 6.51475  39.0579
 6.59525  39.5234
 6.67575  39.9808
 6.75625  40.7184
 6.83675  41.2834
 6.91725  42.126
 6.99775  42.4301
 7.07825  42.3867
 7.15875  42.7447
 7.23925  43.2699
 7.31975  43.6135
 7.40025  43.9916
 7.48075  44.3378
 7.56125  44.2408
 7.64175  44.3224
 7.72225  43.9933
 7.80275  44.2369
 7.88325  43.9926
 7.96375  43.6884
 8.04425  43.0954
 8.12475  42.9225
 8.20525  41.8449
 8.28575  41.0532
 8.36625  40.3987
 8.44675  38.87
 8.52725  37.4126
 8.60775  36.4344
 8.68825  35.1842
 8.76875  33.7181
 8.84925  32.5926
 8.92975  31.8148
 9.01025  30.488
 9.09075  29.8443
 9.17125  28.8807
 9.25175  28.2731
 9.33225  27.5664
 9.41275  26.9033
 9.49325  26.2981
 9.57375  25.806
 9.65425  25.5179
 9.73475  25.3269
 9.81525  24.8505
 9.89575  24.5999
 9.97625  24.3441
 10.0567  24.0575
 10.1373  23.8001
 10.2178  23.669
 10.2982  23.496
 10.3788  23.3614
 10.4593  23.3242
 10.5397  23.0967
 10.6203  22.8282
 10.7007  23.0548
 10.7813  22.8225
 10.8618  22.7122
 10.9422  22.5242
 11.0228  22.7264
 11.1033  22.4791
 11.1837  22.4396
 11.2643  22.5051
 11.3447  22.7816
 11.4253  23.1797
 11.5058  23.7104
 11.5862  40.0437
 11.6668  25.6206
 11.7473  22.8959
 11.8277  22.6764
 11.9083  22.5534
 11.9887  23.3189
 12.0693  24.2381
 12.1498  24.2075
 12.2302  22.4362
 12.3108  22.5059
 12.3913  22.3645
 12.4718  22.7058
 12.5523  22.6291
 12.6328  22.7881
 12.7133  22.8096
 12.7938  22.9599
 12.8742  23.4039
 12.9548  23.6896
 13.0353  24.05
 13.1158  24.8178
 13.1963  25.5059
 13.2768  26.409
 13.3573  27.7262
 13.4378  28.53
 13.5183  29.4035
 13.5988  29.665
 13.6793  29.8582
 13.7598  29.7098
 13.8403  30.3052
 13.9208  42.3943
 14.0013  31.9555
 14.0818  28.1142
 14.1623  27.0371
 14.2428  26.5632
 14.3233  26.256
 14.4038  25.9579
 14.4843  25.7135
 14.5648  25.3778
 14.6453  25.2529
 14.7258  25.139
 14.8063  25.0105
 14.8868  24.8338
 14.9673  24.8004
 15.0478  24.8282
 15.1283  25.2266
 15.2088  26.94
 15.2892  24.8035
 15.3698  24.5533
 15.4503  24.5049
 15.5308  24.575
 15.6113  24.4694
 15.6918  24.5238
 15.7723  24.5058
 15.8528  24.4294
 15.9332  24.5149
 16.0138  24.6592
 16.0943  24.5951
 16.1748  24.7156
 16.2553  25.2351
 16.3358  24.8916
 16.4163  24.667
 16.4967  24.636
 16.5773  24.5976
 16.6578  24.4873
 16.7383  24.4503
 16.8188  24.4279
 16.8992  24.2964
 16.9798  24.4622
 17.0603  24.0607
 17.1408  24.0446
 17.2213  24.142
 17.3017  24.005
 17.3823  23.9458
 17.4628  23.9482
 17.5433  23.8922
 17.6238  23.9488
 17.7042  23.9408
 17.7847  23.8169
 17.8653  23.8138
 17.9458  23.7742
 18.0263  24.3814
 18.1068  24.7897
 18.1872  23.8769
 18.2678  23.7579
 18.3483  23.6514
 18.4288  23.5811
 18.5093  23.5064
 18.5897  23.5681
 18.6703  23.523
 18.7508  23.4269
 18.8313  23.4982
 18.9118  23.435
 18.9922  23.4384
 19.0727  23.4447
 19.1533  23.67
 19.2338  23.4767
 19.3143  23.5147
 19.3948  23.6318
 19.4752  23.6527
 19.5558  23.7634
 19.6363  23.9954
 19.7168  25.5559
 19.7973  25.1538
 19.8777  25.7959
 19.9582  23.9374
 20.0388  23.7733
 20.1193  23.8568
 20.1998  23.7343
 20.2803  23.7232
 20.3607  23.7701
 20.4413  23.8411
 20.5218  23.6109
 20.6023  23.9435
 20.6828  24.4506
 20.7632  26.1262
 20.8438  24.4211
 20.9243  24.0644
 21.0048  23.8804
 21.0853  23.8578
 21.1658  23.7872
 21.2462  23.9102
 21.3268  23.7955
 21.4073  24.1157
 21.4878  23.9248
 21.5683  24.0098
 21.6487  23.9365
 21.7293  24.0481
 21.8098  24.1392
 21.8903  24.1187
 21.9708  24.19
 22.0512  24.3702
 22.1318  24.357
 22.2123  24.2854
 22.2928  24.449
 22.3733  24.515
 22.4538  24.6081
 22.5343  24.8457
 22.6148  24.8361
 22.6953  25.0315
 22.7758  25.2253
 22.8563  25.5415
 22.9367  26.0054
 22.9943  26.511

File: Data_0054.chi
F:\20151113_APS_34IDE\\Brian\Particle1\OCV\Data_0054.tif
2-Theta Angle (Degrees)
Intensity
       2000
 0.07475  0.0000000E+00
 0.15525  0.0000000E+00
 0.23575  0.0000000E+00
 0.31625  0.0000000E+00
 0.39675  0.0000000E+00
 0.47725  0.0000000E+00
 0.55775  0.0000000E+00
 0.63825  0.0000000E+00
 0.71875  0.0000000E+00
 0.79925  0.0000000E+00
 0.87975  0.0000000E+00
 0.96025  0.0000000E+00
 1.04075  0.0000000E+00
 1.12125  0.0000000E+00
 1.20175  0.0000000E+00
 1.28225  0.0000000E+00
 1.36275  0.0000000E+00
 1.44325  0.0000000E+00
 1.52375  0.0000000E+00
 1.60425  0.0000000E+00
 1.68475  0.0000000E+00
 1.76525  0.0000000E+00
 1.84575  0.0000000E+00
 1.92625  0.0000000E+00
 2.00675  0.0000000E+00
 2.08725  0.0000000E+00
 2.16775  0.0000000E+00
 2.24825  0.0000000E+00
 2.32875  0.0000000E+00
 2.40925  0.0000000E+00
 2.48975  0.0000000E+00
 2.57025  0.0000000E+00
 2.65075  0.0000000E+00
 2.73125  0.0000000E+00
 2.81175  0.0000000E+00
 2.89225  34.5801
 2.97275  34.8307
 3.05325  35.4583
 3.13375  35.7671
 3.21425  35.9045
 3.29475  34.7429
 3.37525  34.9231
 3.45575  34.6837
 3.53625  34.4411
 3.61675  33.8813
 3.69725  33.9652
 3.77775  33.1266
 3.85825  32.4813
 3.93875  33.0581
 4.01925  33.291
 4.09975  32.6825
 4.18025  32.4185
 4.26075  32.8402
 4.34125  32.4834
 4.42175  32.662
 4.50225  32.5678
 4.58275  32.8721
 4.66325  33.3586
 4.74375  33.2506
 4.82425  32.6086
 4.90475  33.4056
 4.98525  33.4294
 5.06575  33.6529
 5.14625  34.0139
 5.22675  34.2567
 5.30725  34.4179
 5.38775  34.7282
 5.46825  34.7779
 5.54875  35.3113
 5.62925  35.2058
 5.70975  35.1903
 5.79025  35.6976
 5.87075  35.7699
 5.95125  38.3345
 6.03175  37.7334
 6.11225  36.8323
 6.19275  37.2386
 6.27325  37.4729
 6.35375  37.9966
 6.43425  38.6148
 6.51475  39.4304
 6.59525  39.816
 6.67575  40.4395
 6.75625  41.2184
 6.83675  41.5761
 6.91725  42.1482
 6.99775  42.4279
 7.07825  42.9884
 7.15875  43.2725
 7.23925  43.7396
 7.31975  43.9747
 7.40025  44.0133
 7.48075  44.305
 7.56125  44.3026
 7.64175  44.6477
 7.72225  44.3436
 7.80275  44.22
 7.88325  44.5661
 7.96375  43.8938
 8.04425  43.6382
 8.12475  42.7602
 8.20525  41.9834
 8.28575  40.9982
 8.36625  40.0686
 8.44675  38.9533
 8.52725  38.041
 8.60775  36.7126
 8.68825  35.3428
 8.76875  33.921
 8.84925  32.9242
 8.92975  31.9081
 9.01025  30.7298
 9.09075  29.9332
 9.17125  29.1014
 9.25175  28.1419
 9.33225  27.4609
 9.41275  26.9783
 9.49325  26.4919
 9.57375  25.7906
 9.65425  25.5154
 9.73475  25.1924
 9.81525  24.8416
 9.89575  24.8131
 9.97625  24.3986
 10.0567  24.1041
 10.1373  23.9922
 10.2178  23.6042
 10.2982  23.3785
 10.3788  23.2287
 10.4593  23.1359
 10.5397  22.9762
 10.6203  22.9788
 10.7007  22.8753
 10.7813  22.8719
 10.8618  22.6824
 10.9422  22.693
 11.0228  22.4102
 11.1033  22.3721
 11.1837  22.4111
 11.2643  22.328
 11.3447  22.3645
 11.4253  22.6012
 11.5058  22.492
 11.5862  24.2822
 11.6668  22.7272
 11.7473  22.3421
 11.8277  22.2938
 11.9083  22.2991
 11.9887  22.5954
 12.0693  22.7543
 12.1498  22.69
 12.2302  22.4703
 12.3108  22.5258
 12.3913  22.4836
 12.4718  22.5665
 12.5523  22.4443
 12.6328  22.7549
 12.7133  22.9555
 12.7938  23.034
 12.8742  23.3983
 12.9548  23.7771
 13.0353  23.9521
 13.1158  24.9124
 13.1963  25.4639
 13.2768  26.6261
 13.3573  27.6194
 13.4378  28.5684
 13.5183  29.431
 13.5988  29.6313
 13.6793  29.6013
 13.7598  29.2209
 13.8403  28.8638
 13.9208  29.7492
 14.0013  28.851
 14.0818  27.4476
 14.1623  26.908
 14.2428  26.3551
 14.3233  25.9994
 14.4038  25.8813
 14.4843  25.5319
 14.5648  25.4688
 14.6453  25.3251
 14.7258  25.0804
 14.8063  24.9341
 14.8868  24.7471
 14.9673  24.7343
 15.0478  24.7105
 15.1283  24.6605
 15.2088  25.1781
 15.2892  24.4357
 15.3698  24.3835
 15.4503  24.3998
 15.5308  24.4185
 15.6113  24.5343
 15.6918  24.4225
 15.7723  24.3944
 15.8528  24.4772
 15.9332  24.4235
 16.0138  24.5864
 16.0943  24.5716
 16.1748  24.7852
 16.2553  25.084
 16.3358  24.7432
 16.4163  24.5552
 16.4967  24.436
 16.5773  24.5316
 16.6578  24.3681
 16.7383  24.3953
 16.8188  24.3473
 16.8992  24.203
 16.9798  24.1473
 17.0603  23.9053
 17.1408  23.9098
 17.2213  24.0832
 17.3017  24.0706
 17.3823  23.9398
 17.4628  23.8546
 17.5433  23.7141
 17.6238  23.5605
 17.7042  23.7014
 17.7847  23.6654
 17.8653  23.3302
 17.9458  23.6111
 18.0263  23.7502
 18.1068  23.7207
 18.1872  23.5398
 18.2678  23.3539
 18.3483  23.5108
 18.4288  23.2908
 18.5093  23.3606
 18.5897  23.6562
 18.6703  23.3426
 18.7508  23.2687
 18.8313  23.3216
 18.9118  23.3173
 18.9922  23.3733
 19.0727  23.6145
 19.1533  23.3636
 19.2338  23.3731
 19.3143  23.345
 19.3948  23.3527
 19.4752  23.3933
 19.5558  23.3291
 19.6363  23.4643
 19.7168  24.1444
 19.7973  23.8248
 19.8777  23.9843
 19.9582  23.5356
 20.0388  23.4269
 20.1193  23.4688
 20.1998  23.4675
 20.2803  23.4353
 20.3607  23.4893
 20.4413  23.4451
 20.5218  23.3772
 20.6023  23.6408
 20.6828  23.7089
 20.7632  24.0198
 20.8438  23.6241
 20.9243  23.6939
 21.0048  23.6083
 21.0853  23.6189
 21.1658  23.5514
 21.2462  23.7141
 21.3268  23.7127
 21.4073  23.6352
 21.4878  23.7014
 21.5683  23.7007
 21.6487  23.8858
 21.7293  23.8951
 21.8098  23.8506
 21.8903  24.061
 21.9708  23.9947
 22.0512  24.1734
 22.1318  24.1368
 22.2123  24.1478
 22.2928  24.1975
 22.3733  24.234
 22.4538  24.3493
 22.5343  24.5498
 22.6148  24.649
 22.6953  24.948
 22.7758  25.174
 22.8563  25.216
 22.9367  25.6514
 22.9943  25.9846

File: Data_0055.chi
F:\20151113_APS_34IDE\\Brian\Particle1\OCV\Data_0055.tif
2-Theta Angle (Degrees)
Intensity
       2000
 0.07475  0.0000000E+00
 0.15525  0.0000000E+00
 0.23575  0.0000000E+00
 0.31625  0.0000000E+00
 0.39675  0.0000000E+00
 0.47725  0.0000000E+00
 0.55775  0.0000000E+00
 0.63825  0.0000000E+00
 0.71875  0.0000000E+00
 0.79925  0.0000000E+00
 0.87975  0.0000000E+00
 0.96025  0.0000000E+00
 1.04075  0.0000000E+00
 1.12125  0.0000000E+00
 1.20175  0.0000000E+00
 1.28225  0.0000000E+00
 1.36275  0.0000000E+00
 1.44325  0.0000000E+00
 1.52375  0.0000000E+00
 1.60425  0.0000000E+00
 1.68475  0.0000000E+00
 1.76525  0.0000000E+00
 1.84575  0.0000000E+00
 1.92625  0.0000000E+00
 2.00675  0.0000000E+00
 2.08725  0.0000000E+00
 2.16775  0.0000000E+00
 2.24825  0.0000000E+00
 2.32875  0.0000000E+00
 2.40925  0.0000000E+00
 2.48975  0.0000000E+00
 2.57025  0.0000000E+00
 2.65075  0.0000000E+00
 2.73125  0.0000000E+00
 2.81175  0.0000000E+00
 2.89225  34.0016
 2.97275  34.8995
 3.05325  35.6539
 3.13375  35.5373
 3.21425  36.7273
 3.29475  35.345
 3.37525  35.433
 3.45575  34.2815
 3.53625  34.8256
 3.61675  33.5115
 3.69725  33.9375
 3.77775  32.9822
 3.85825  33.1212
 3.93875  32.7405
 4.01925  32.964
 4.09975  32.392
 4.18025  32.3384
 4.26075  32.248
 4.34125  32.5618
 4.42175  32.4858
 4.50225  32.6102
 4.58275  32.7968
 4.66325  32.724
 4.74375  32.3907
 4.82425  32.7315
 4.90475  32.8548
 4.98525  32.9056
 5.06575  33.0713
 5.14625  33.6974
 5.22675  34.0645
 5.30725  34.5963
 5.38775  34.4395
 5.46825  34.5557
 5.54875  35.1065
 5.62925  35.4078
 5.70975  35.4518
 5.79025  35.838
 5.87075  35.7796
 5.95125  38.1855
 6.03175  37.5935
 6.11225  36.5337
 6.19275  36.7044
 6.27325  37.5558
 6.35375  38.1367
 6.43425  38.3719
 6.51475  39.253
 6.59525  39.4755
 6.67575  40.3395
 6.75625  40.7296
 6.83675  41.631
 6.91725  42.1868
 6.99775  42.5567
 7.07825  42.6983
 7.15875  43.2508
 7.23925  43.8499
 7.31975  43.7418
 7.40025  43.9668
 7.48075  44.2275
 7.56125  44.2739
 7.64175  44.3247
 7.72225  44.6588
 7.80275  44.4887
 7.88325  44.334
 7.96375  43.7404
 8.04425  43.4067
 8.12475  42.8922
 8.20525  42.0423
 8.28575  41.4303
 8.36625  40.3876
 8.44675  38.6462
 8.52725  37.7235
 8.60775  36.4421
 8.68825  35.0783
 8.76875  33.6112
 8.84925  32.6749
 8.92975  31.6546
 9.01025  30.5846
 9.09075  29.6345
 9.17125  28.8996
 9.25175  28.0611
 9.33225  27.2963
 9.41275  26.5922
 9.49325  26.5027
 9.57375  25.602
 9.65425  25.5022
 9.73475  25.081
 9.81525  24.5537
 9.89575  24.2817
 9.97625  24.1495
 10.0567  23.9631
 10.1373  23.7675
 10.2178  23.5502
 10.2982  23.3618
 10.3788  23.3075
 10.4593  22.9083
 10.5397  22.9871
 10.6203  22.8349
 10.7007  22.7787
 10.7813  22.5588
 10.8618  22.503
 10.9422  22.3601
 11.0228  22.3769
 11.1033  22.4381
 11.1837  22.4499
 11.2643  22.2597
 11.3447  22.2082
 11.4253  22.4695
 11.5058  22.1784
 11.5862  23.2487
 11.6668  22.3651
 11.7473  22.241
 11.8277  22.2143
 11.9083  22.2018
 11.9887  22.3944
 12.0693  22.434
 12.1498  22.5083
 12.2302  22.1834
 12.3108  22.2837
 12.3913  22.3826
 12.4718  22.3737
 12.5523  22.4921
 12.6328  22.567
 12.7133  22.7666
 12.7938  22.8136
 12.8742  23.1379
 12.9548  23.5715
 13.0353  23.9913
 13.1158  24.6641
 13.1963  25.554
 13.2768  26.2625
 13.3573  27.4108
 13.4378  28.467
 13.5183  29.2574
 13.5988  29.4575
 13.6793  29.6384
 13.7598  29.1584
 13.8403  28.8178
 13.9208  29.0444
 14.0013  28.6558
 14.0818  27.3303
 14.1623  26.8616
 14.2428  26.3142
 14.3233  26.0586
 14.4038  25.7719
 14.4843  25.4031
 14.5648  25.3368
 14.6453  25.0162
 14.7258  24.9376
 14.8063  24.8685
 14.8868  24.7727
 14.9673  24.6153
 15.0478  24.7212
 15.1283  24.5987
 15.2088  24.902
 15.2892  24.2725
 15.3698  24.2874
 15.4503  24.3261
 15.5308  24.3063
 15.6113  24.3435
 15.6918  24.3081
 15.7723  24.4408
 15.8528  24.3762
 15.9332  24.4139
 16.0138  24.4998
 16.0943  24.4501
 16.1748  24.4173
 16.2553  24.937
 16.3358  24.6997
 16.4163  24.5867
 16.4967  24.402
 16.5773  24.2423
 16.6578  24.2458
 16.7383  24.1398
 16.8188  24.1277
 16.8992  24.0922
 16.9798  24.0264
 17.0603  23.8738
 17.1408  24.0216
 17.2213  23.9931
 17.3017  23.7605
 17.3823  23.738
 17.4628  23.8285
 17.5433  23.7003
 17.6238  23.6477
 17.7042  23.5854
 17.7847  23.5519
 17.8653  23.459
 17.9458  23.3709
 18.0263  23.5629
 18.1068  23.6261
 18.1872  23.2162
 18.2678  23.2659
 18.3483  23.2694
 18.4288  23.2716
 18.5093  23.2373
 18.5897  23.3146
 18.6703  23.2238
 18.7508  23.2123
 18.8313  23.2695
 18.9118  23.4125
 18.9922  23.2587
 19.0727  23.3637
 19.1533  23.2387
 19.2338  23.2801
 19.3143  23.2332
 19.3948  23.2576
 19.4752  23.5524
 19.5558  23.2569
 19.6363  23.4523
 19.7168  23.8875
 19.7973  23.5256
 19.8777  23.8759
 19.9582  23.4721
 20.0388  23.3081
 20.1193  23.4783
 20.1998  23.4275
 20.2803  23.3513
 20.3607  23.4815
 20.4413  23.4127
 20.5218  23.3227
 20.6023  23.5177
 20.6828  23.5087
 20.7632  23.8856
 20.8438  23.5812
 20.9243  23.6093
 21.0048  23.6785
 21.0853  23.5728
 21.1658  23.5394
 21.2462  23.6783
 21.3268  23.5487
 21.4073  23.5458
 21.4878  23.8199
 21.5683  23.7093
 21.6487  23.8359
 21.7293  23.9559
 21.8098  23.8328
 21.8903  23.9391
 21.9708  23.9526
 22.0512  24.05
 22.1318  24.0827
 22.2123  24.147
 22.2928  24.1626
 22.3733  24.3651
 22.4538  24.2478
 22.5343  24.4858
 22.6148  24.5239
 22.6953  24.7972
 22.7758  24.9571
 22.8563  25.1869
 22.9367  25.6438
 22.9943  25.8734

File: Data_0056.chi
F:\20151113_APS_34IDE\\Brian\Particle1\OCV\Data_0056.tif
2-Theta Angle (Degrees)
Intensity
       2000
 0.07475  0.0000000E+00
 0.15525  0.0000000E+00
 0.23575  0.0000000E+00
 0.31625  0.0000000E+00
 0.39675  0.0000000E+00
 0.47725  0.0000000E+00
 0.55775  0.0000000E+00
 0.63825  0.0000000E+00
 0.71875  0.0000000E+00
 0.79925  0.0000000E+00
 0.87975  0.0000000E+00
 0.96025  0.0000000E+00
 1.04075  0.0000000E+00
 1.12125  0.0000000E+00
 1.20175  0.0000000E+00
 1.28225  0.0000000E+00
 1.36275  0.0000000E+00
 1.44325  0.0000000E+00
 1.52375  0.0000000E+00
 1.60425  0.0000000E+00
 1.68475  0.0000000E+00
 1.76525  0.0000000E+00
 1.84575  0.0000000E+00
 1.92625  0.0000000E+00
 2.00675  0.0000000E+00
 2.08725  0.0000000E+00
 2.16775  0.0000000E+00
 2.24825  0.0000000E+00
 2.32875  0.0000000E+00
 2.40925  0.0000000E+00
 2.48975  0.0000000E+00
 2.57025  0.0000000E+00
 2.65075  0.0000000E+00
 2.73125  0.0000000E+00
 2.81175  0.0000000E+00
 2.89225  35.5105
 2.97275  35.2979
 3.05325  35.5408
 3.13375  36.1247
 3.21425  36.3129
 3.29475  35.1854
 3.37525  35.167
 3.45575  34.5279
 3.53625  33.7104
 3.61675  33.7101
 3.69725  33.637
 3.77775  33.205
 3.85825  32.8592
 3.93875  32.4091
 4.01925  32.7115
 4.09975  32.109
 4.18025  32.0321
 4.26075  32.4967
 4.34125  32.2617
 4.42175  32.5556
 4.50225  33.0451
 4.58275  32.6114
 4.66325  32.6448
 4.74375  32.6583
 4.82425  32.7837
 4.90475  32.5951
 4.98525  33.2535
 5.06575  33.2462
 5.14625  33.7033
 5.22675  34.27
 5.30725  34.2982
 5.38775  34.6847
 5.46825  35.2206
 5.54875  35.3149
 5.62925  35.6947
 5.70975  36.4113
 5.79025  38.2093
 5.87075  41.1299
 5.95125  110.376
 6.03175  129.166
 6.11225  41.2128
 6.19275  38.6962
 6.27325  38.4199
 6.35375  38.3724
 6.43425  38.8407
 6.51475  39.5451
 6.59525  39.8318
 6.67575  40.6218
 6.75625  40.7291
 6.83675  41.8455
 6.91725  42.0067
 6.99775  42.3676
 7.07825  42.7131
 7.15875  43.415
 7.23925  43.3707
 7.31975  43.9122
 7.40025  44.1421
 7.48075  44.252
 7.56125  44.3082
 7.64175  44.5103
 7.72225  44.3336
 7.80275  43.9902
 7.88325  44.1446
 7.96375  43.7182
 8.04425  43.217
 8.12475  42.608
 8.20525  42.0986
 8.28575  41.0785
 8.36625  39.9519
 8.44675  39.1614
 8.52725  37.7641
 8.60775  36.504
 8.68825  34.8157
 8.76875  33.7604
 8.84925  32.6499
 8.92975  31.5837
 9.01025  30.3197
 9.09075  29.8853
 9.17125  28.9584
 9.25175  28.1154
 9.33225  27.191
 9.41275  26.9794
 9.49325  26.5507
 9.57375  25.9755
 9.65425  25.5763
 9.73475  25.1499
 9.81525  24.9291
 9.89575  24.4992
 9.97625  24.2725
 10.0567  24.1469
 10.1373  23.8484
 10.2178  23.5933
 10.2982  23.5742
 10.3788  23.2616
 10.4593  23.3405
 10.5397  23.1299
 10.6203  22.9992
 10.7007  23.086
 10.7813  22.7603
 10.8618  22.601
 10.9422  22.5589
 11.0228  22.5874
 11.1033  22.435
 11.1837  22.4997
 11.2643  22.4547
 11.3447  22.5073
 11.4253  22.6821
 11.5058  22.7805
 11.5862  26.5864
 11.6668  23.1091
 11.7473  22.5295
 11.8277  22.365
 11.9083  22.5223
 11.9887  23.7377
 12.0693  23.9123
 12.1498  26.2329
 12.2302  22.6293
 12.3108  22.7231
 12.3913  22.5637
 12.4718  22.5578
 12.5523  22.7214
 12.6328  22.8483
 12.7133  22.8722
 12.7938  22.9609
 12.8742  23.4889
 12.9548  23.7873
 13.0353  24.1189
 13.1158  24.869
 13.1963  25.7939
 13.2768  26.7321
 13.3573  27.7002
 13.4378  28.5229
 13.5183  29.2867
 13.5988  29.7514
 13.6793  29.7249
 13.7598  29.4697
 13.8403  29.1868
 13.9208  32.7167
 14.0013  30.6605
 14.0818  27.673
 14.1623  27.0476
 14.2428  26.593
 14.3233  26.2024
 14.4038  25.9717
 14.4843  25.7588
 14.5648  25.6728
 14.6453  25.3875
 14.7258  25.2936
 14.8063  25.0423
 14.8868  24.949
 14.9673  24.8916
 15.0478  25.0266
 15.1283  25.498
 15.2088  26.9697
 15.2892  24.8304
 15.3698  24.64
 15.4503  24.449
 15.5308  24.5844
 15.6113  24.6291
 15.6918  24.6434
 15.7723  24.6346
 15.8528  24.5965
 15.9332  24.5889
 16.0138  24.7477
 16.0943  24.8169
 16.1748  25.1567
 16.2553  28.5629
 16.3358  25.1028
 16.4163  24.6921
 16.4967  24.7335
 16.5773  24.6105
 16.6578  24.6922
 16.7383  24.5257
 16.8188  24.4321
 16.8992  24.637
 16.9798  24.3232
 17.0603  24.1956
 17.1408  24.1983
 17.2213  24.1272
 17.3017  24.0048
 17.3823  24.1012
 17.4628  23.9237
 17.5433  23.8793
 17.6238  23.8835
 17.7042  24.0124
 17.7847  23.7962
 17.8653  23.7604
 17.9458  23.7951
 18.0263  24.5778
 18.1068  26.8678
 18.1872  25.181
 18.2678  23.6939
 18.3483  23.589
 18.4288  23.62
 18.5093  23.6743
 18.5897  23.6231
 18.6703  23.6278
 18.7508  23.4234
 18.8313  23.5039
 18.9118  23.4993
 18.9922  23.2994
 19.0727  23.5365
 19.1533  23.5182
 19.2338  23.5207
 19.3143  23.5464
 19.3948  23.6156
 19.4752  23.6836
 19.5558  23.7387
 19.6363  24.0563
 19.7168  26.6643
 19.7973  25.143
 19.8777  27.5479
 19.9582  24.0247
 20.0388  23.8532
 20.1193  23.8194
 20.1998  23.7757
 20.2803  23.7094
 20.3607  23.6726
 20.4413  23.7741
 20.5218  23.6291
 20.6023  23.8921
 20.6828  24.3626
 20.7632  26.3317
 20.8438  24.2358
 20.9243  24.028
 21.0048  23.8276
 21.0853  23.8869
 21.1658  23.84
 21.2462  23.9374
 21.3268  23.8027
 21.4073  23.9366
 21.4878  23.9151
 21.5683  23.8862
 21.6487  23.993
 21.7293  24.2193
 21.8098  24.1933
 21.8903  24.1139
 21.9708  24.1696
 22.0512  24.3195
 22.1318  24.2635
 22.2123  24.4183
 22.2928  24.4306
 22.3733  24.453
 22.4538  24.8163
 22.5343  24.7831
 22.6148  24.9916
 22.6953  25.1459
 22.7758  25.2519
 22.8563  25.6325
 22.9367  26.0597
 22.9943  26.5612