Folder: scimap-tests/test-data-xrd/xrd-map-34-ID-E (part 6)

File: Data_0023.chi
F:\20151113_APS_34IDE\\Brian\Particle1\OCV\Data_0023.tif
2-Theta Angle (Degrees)
Intensity
       2000
 0.07475  0.0000000E+00
 0.15525  0.0000000E+00
 0.23575  0.0000000E+00
 0.31625  0.0000000E+00
 0.39675  0.0000000E+00
 0.47725  0.0000000E+00
 0.55775  0.0000000E+00
 0.63825  0.0000000E+00
 0.71875  0.0000000E+00
 0.79925  0.0000000E+00
 0.87975  0.0000000E+00
 0.96025  0.0000000E+00
 1.04075  0.0000000E+00
 1.12125  0.0000000E+00
 1.20175  0.0000000E+00
 1.28225  0.0000000E+00
 1.36275  0.0000000E+00
 1.44325  0.0000000E+00
 1.52375  0.0000000E+00
 1.60425  0.0000000E+00
 1.68475  0.0000000E+00
 1.76525  0.0000000E+00
 1.84575  0.0000000E+00
 1.92625  0.0000000E+00
 2.00675  0.0000000E+00
 2.08725  0.0000000E+00
 2.16775  0.0000000E+00
 2.24825  0.0000000E+00
 2.32875  0.0000000E+00
 2.40925  0.0000000E+00
 2.48975  0.0000000E+00
 2.57025  0.0000000E+00
 2.65075  0.0000000E+00
 2.73125  0.0000000E+00
 2.81175  0.0000000E+00
 2.89225  35.6083
 2.97275  35.7572
 3.05325  36.1962
 3.13375  35.9007
 3.21425  34.9699
 3.29475  34.9793
 3.37525  35.597
 3.45575  33.6569
 3.53625  34.133
 3.61675  33.7475
 3.69725  33.3431
 3.77775  33.6571
 3.85825  32.7517
 3.93875  32.6387
 4.01925  33.1473
 4.09975  32.4677
 4.18025  31.9622
 4.26075  32.3279
 4.34125  32.4638
 4.42175  32.8428
 4.50225  32.0199
 4.58275  33.0052
 4.66325  33.3317
 4.74375  32.8615
 4.82425  32.7972
 4.90475  32.6947
 4.98525  33.0804
 5.06575  33.3792
 5.14625  33.3662
 5.22675  34.1295
 5.30725  34.1517
 5.38775  34.6087
 5.46825  35.6893
 5.54875  34.7594
 5.62925  35.223
 5.70975  35.5852
 5.79025  36.0621
 5.87075  36.5142
 5.95125  47.4093
 6.03175  44.1761
 6.11225  37.3709
 6.19275  37.4741
 6.27325  37.777
 6.35375  38.5586
 6.43425  38.9072
 6.51475  39.1407
 6.59525  39.9753
 6.67575  40.5303
 6.75625  40.9087
 6.83675  41.8922
 6.91725  42.2638
 6.99775  42.8038
 7.07825  42.9452
 7.15875  43.4916
 7.23925  44.2547
 7.31975  44.4571
 7.40025  44.3704
 7.48075  44.8676
 7.56125  44.7333
 7.64175  45.011
 7.72225  44.9675
 7.80275  44.8975
 7.88325  44.4948
 7.96375  44.112
 8.04425  43.7745
 8.12475  43.3161
 8.20525  42.6345
 8.28575  41.7475
 8.36625  40.6393
 8.44675  39.3723
 8.52725  37.9926
 8.60775  36.9362
 8.68825  35.7345
 8.76875  34.2465
 8.84925  33.2318
 8.92975  32.2974
 9.01025  31.2116
 9.09075  30.3181
 9.17125  29.4005
 9.25175  28.7456
 9.33225  27.9956
 9.41275  27.5319
 9.49325  27.0531
 9.57375  26.2887
 9.65425  26.1008
 9.73475  25.6982
 9.81525  25.492
 9.89575  25.0253
 9.97625  24.5923
 10.0567  24.458
 10.1373  24.3003
 10.2178  24.0684
 10.2982  24.0972
 10.3788  23.9304
 10.4593  23.7085
 10.5397  23.3424
 10.6203  23.1576
 10.7007  23.1501
 10.7813  23.0547
 10.8618  23.1772
 10.9422  23.043
 11.0228  22.7721
 11.1033  22.8157
 11.1837  22.6376
 11.2643  22.6043
 11.3447  22.649
 11.4253  22.961
 11.5058  22.848
 11.5862  24.7382
 11.6668  22.8155
 11.7473  22.6818
 11.8277  22.5419
 11.9083  22.5972
 11.9887  22.8323
 12.0693  23.0475
 12.1498  23.0824
 12.2302  22.7329
 12.3108  22.8954
 12.3913  22.7999
 12.4718  22.7299
 12.5523  22.9907
 12.6328  22.975
 12.7133  23.1656
 12.7938  23.2111
 12.8742  23.6381
 12.9548  23.8666
 13.0353  24.3488
 13.1158  25.055
 13.1963  25.9492
 13.2768  26.8918
 13.3573  27.8987
 13.4378  28.6642
 13.5183  29.5458
 13.5988  30.0632
 13.6793  29.8664
 13.7598  29.5345
 13.8403  29.3941
 13.9208  31.2226
 14.0013  30.3162
 14.0818  27.6944
 14.1623  27.2769
 14.2428  26.6312
 14.3233  26.6642
 14.4038  26.1611
 14.4843  25.9009
 14.5648  25.7313
 14.6453  25.4417
 14.7258  25.3644
 14.8063  25.0484
 14.8868  24.9399
 14.9673  24.9378
 15.0478  25.0436
 15.1283  25.1257
 15.2088  25.4891
 15.2892  24.8557
 15.3698  24.6136
 15.4503  24.724
 15.5308  24.7184
 15.6113  24.7388
 15.6918  24.6604
 15.7723  24.755
 15.8528  24.6727
 15.9332  24.6748
 16.0138  24.9064
 16.0943  24.9031
 16.1748  25.1806
 16.2553  29.2392
 16.3358  25.5234
 16.4163  25.1237
 16.4967  24.9696
 16.5773  24.6902
 16.6578  24.6875
 16.7383  24.6181
 16.8188  24.5638
 16.8992  24.5946
 16.9798  24.4303
 17.0603  24.3161
 17.1408  24.3391
 17.2213  24.4195
 17.3017  24.3958
 17.3823  24.197
 17.4628  24.04
 17.5433  24.0848
 17.6238  23.9989
 17.7042  23.9523
 17.7847  23.8744
 17.8653  23.9728
 17.9458  23.9447
 18.0263  24.3907
 18.1068  24.9513
 18.1872  23.8491
 18.2678  23.7925
 18.3483  23.6699
 18.4288  23.6862
 18.5093  23.7771
 18.5897  23.6341
 18.6703  23.502
 18.7508  23.536
 18.8313  24.0552
 18.9118  23.6816
 18.9922  23.6346
 19.0727  23.6503
 19.1533  23.6784
 19.2338  23.5559
 19.3143  23.6758
 19.3948  23.6579
 19.4752  23.6921
 19.5558  23.8206
 19.6363  23.7932
 19.7168  24.4666
 19.7973  24.4373
 19.8777  24.5299
 19.9582  23.8833
 20.0388  23.747
 20.1193  23.8512
 20.1998  23.8343
 20.2803  23.7868
 20.3607  23.818
 20.4413  23.844
 20.5218  23.7832
 20.6023  23.9427
 20.6828  24.0689
 20.7632  24.8135
 20.8438  24.0748
 20.9243  24.096
 21.0048  24.0814
 21.0853  23.9913
 21.1658  23.8772
 21.2462  24.0276
 21.3268  24.0759
 21.4073  24.0317
 21.4878  24.1179
 21.5683  24.1155
 21.6487  24.2277
 21.7293  24.2192
 21.8098  24.3206
 21.8903  24.3416
 21.9708  24.3429
 22.0512  24.3151
 22.1318  24.5436
 22.2123  24.435
 22.2928  24.5935
 22.3733  24.606
 22.4538  24.7878
 22.5343  24.9464
 22.6148  25.0199
 22.6953  25.1252
 22.7758  25.2599
 22.8563  25.6636
 22.9367  25.9512
 22.9943  26.2736

File: Data_0024.chi
F:\20151113_APS_34IDE\\Brian\Particle1\OCV\Data_0024.tif
2-Theta Angle (Degrees)
Intensity
       2000
 0.07475  0.0000000E+00
 0.15525  0.0000000E+00
 0.23575  0.0000000E+00
 0.31625  0.0000000E+00
 0.39675  0.0000000E+00
 0.47725  0.0000000E+00
 0.55775  0.0000000E+00
 0.63825  0.0000000E+00
 0.71875  0.0000000E+00
 0.79925  0.0000000E+00
 0.87975  0.0000000E+00
 0.96025  0.0000000E+00
 1.04075  0.0000000E+00
 1.12125  0.0000000E+00
 1.20175  0.0000000E+00
 1.28225  0.0000000E+00
 1.36275  0.0000000E+00
 1.44325  0.0000000E+00
 1.52375  0.0000000E+00
 1.60425  0.0000000E+00
 1.68475  0.0000000E+00
 1.76525  0.0000000E+00
 1.84575  0.0000000E+00
 1.92625  0.0000000E+00
 2.00675  0.0000000E+00
 2.08725  0.0000000E+00
 2.16775  0.0000000E+00
 2.24825  0.0000000E+00
 2.32875  0.0000000E+00
 2.40925  0.0000000E+00
 2.48975  0.0000000E+00
 2.57025  0.0000000E+00
 2.65075  0.0000000E+00
 2.73125  0.0000000E+00
 2.81175  0.0000000E+00
 2.89225  35.5798
 2.97275  35.7717
 3.05325  34.5366
 3.13375  35.9069
 3.21425  35.2824
 3.29475  34.9813
 3.37525  34.2302
 3.45575  34.6121
 3.53625  33.733
 3.61675  33.5568
 3.69725  33.4089
 3.77775  33.3082
 3.85825  32.8021
 3.93875  32.9618
 4.01925  32.9067
 4.09975  32.6606
 4.18025  32.5183
 4.26075  32.1384
 4.34125  32.6503
 4.42175  32.3846
 4.50225  32.4252
 4.58275  32.7111
 4.66325  33.1585
 4.74375  33.2316
 4.82425  32.5029
 4.90475  32.9819
 4.98525  32.8717
 5.06575  33.2572
 5.14625  33.9209
 5.22675  34.1195
 5.30725  34.5006
 5.38775  34.6869
 5.46825  34.7736
 5.54875  34.886
 5.62925  35.5223
 5.70975  36.0806
 5.79025  35.8672
 5.87075  36.5636
 5.95125  43.2348
 6.03175  40.9922
 6.11225  37.0173
 6.19275  37.3173
 6.27325  37.7891
 6.35375  38.2321
 6.43425  38.7305
 6.51475  39.4167
 6.59525  39.5632
 6.67575  40.4462
 6.75625  40.8835
 6.83675  41.6583
 6.91725  41.8938
 6.99775  42.66
 7.07825  42.8036
 7.15875  43.6252
 7.23925  43.8058
 7.31975  44.1093
 7.40025  44.7273
 7.48075  44.5845
 7.56125  44.6546
 7.64175  44.792
 7.72225  44.6437
 7.80275  44.4408
 7.88325  44.444
 7.96375  44.0258
 8.04425  43.624
 8.12475  43.1895
 8.20525  42.5678
 8.28575  41.3113
 8.36625  40.3879
 8.44675  39.367
 8.52725  38.1365
 8.60775  36.8049
 8.68825  35.7758
 8.76875  34.3454
 8.84925  33.4737
 8.92975  32.0887
 9.01025  30.9374
 9.09075  30.4077
 9.17125  29.5091
 9.25175  28.5287
 9.33225  28.0159
 9.41275  27.5055
 9.49325  26.8162
 9.57375  26.542
 9.65425  25.8463
 9.73475  25.5694
 9.81525  25.2398
 9.89575  25.1221
 9.97625  24.8524
 10.0567  24.4557
 10.1373  24.3831
 10.2178  24.1304
 10.2982  23.8553
 10.3788  23.8274
 10.4593  23.6303
 10.5397  23.4955
 10.6203  23.3143
 10.7007  23.4067
 10.7813  23.3311
 10.8618  23.1163
 10.9422  22.9626
 11.0228  22.8578
 11.1033  22.8584
 11.1837  22.8976
 11.2643  22.8539
 11.3447  22.9091
 11.4253  23.3824
 11.5058  25.14
 11.5862  49.167
 11.6668  25.4966
 11.7473  23.395
 11.8277  23.2283
 11.9083  22.8742
 11.9887  23.8697
 12.0693  24.1277
 12.1498  24.6709
 12.2302  22.8588
 12.3108  22.9486
 12.3913  22.8237
 12.4718  22.8366
 12.5523  22.9216
 12.6328  23.0887
 12.7133  23.1079
 12.7938  23.3299
 12.8742  23.734
 12.9548  23.9697
 13.0353  24.5052
 13.1158  25.284
 13.1963  25.8981
 13.2768  26.9708
 13.3573  27.9536
 13.4378  28.7274
 13.5183  29.7085
 13.5988  30.1215
 13.6793  30.2885
 13.7598  29.9341
 13.8403  30.1989
 13.9208  42.2106
 14.0013  36.854
 14.0818  28.3392
 14.1623  27.6181
 14.2428  27.097
 14.3233  26.5252
 14.4038  26.3001
 14.4843  25.877
 14.5648  25.8449
 14.6453  25.5233
 14.7258  25.2983
 14.8063  25.1956
 14.8868  25.1304
 14.9673  25.1647
 15.0478  25.1947
 15.1283  25.353
 15.2088  27.9613
 15.2892  25.2733
 15.3698  24.9529
 15.4503  24.7568
 15.5308  24.7657
 15.6113  24.7116
 15.6918  24.9386
 15.7723  24.8589
 15.8528  24.7932
 15.9332  24.9871
 16.0138  24.8865
 16.0943  25.117
 16.1748  25.2551
 16.2553  28.2213
 16.3358  25.4874
 16.4163  25.133
 16.4967  24.9274
 16.5773  24.845
 16.6578  24.7324
 16.7383  24.725
 16.8188  24.6663
 16.8992  24.639
 16.9798  24.4841
 17.0603  24.4684
 17.1408  24.4597
 17.2213  24.3653
 17.3017  24.3069
 17.3823  24.2007
 17.4628  24.468
 17.5433  24.3644
 17.6238  24.0744
 17.7042  23.9375
 17.7847  23.8776
 17.8653  23.965
 17.9458  23.9759
 18.0263  24.5219
 18.1068  25.4446
 18.1872  24.2638
 18.2678  23.8833
 18.3483  24.0104
 18.4288  23.8751
 18.5093  23.8577
 18.5897  23.6987
 18.6703  23.678
 18.7508  23.7631
 18.8313  23.7108
 18.9118  23.7861
 18.9922  23.7188
 19.0727  23.8149
 19.1533  23.7832
 19.2338  23.6957
 19.3143  23.9823
 19.3948  23.9267
 19.4752  23.8983
 19.5558  24.0315
 19.6363  24.6238
 19.7168  26.8274
 19.7973  25.4517
 19.8777  26.6504
 19.9582  24.2943
 20.0388  24.0422
 20.1193  24.0221
 20.1998  24.0004
 20.2803  23.9368
 20.3607  23.9364
 20.4413  24.0224
 20.5218  23.8936
 20.6023  24.1279
 20.6828  24.384
 20.7632  26.1211
 20.8438  24.4536
 20.9243  24.2193
 21.0048  24.112
 21.0853  24.1217
 21.1658  24.0727
 21.2462  24.0853
 21.3268  23.9839
 21.4073  24.1257
 21.4878  24.1609
 21.5683  24.1668
 21.6487  24.2399
 21.7293  24.2891
 21.8098  24.2691
 21.8903  24.4712
 21.9708  24.5231
 22.0512  24.5018
 22.1318  24.5019
 22.2123  24.6882
 22.2928  24.6612
 22.3733  24.7279
 22.4538  24.7915
 22.5343  24.9668
 22.6148  25.0695
 22.6953  25.3308
 22.7758  25.58
 22.8563  25.7282
 22.9367  26.1836
 22.9943  26.4377

File: Data_0025.chi
F:\20151113_APS_34IDE\\Brian\Particle1\OCV\Data_0025.tif
2-Theta Angle (Degrees)
Intensity
       2000
 0.07475  0.0000000E+00
 0.15525  0.0000000E+00
 0.23575  0.0000000E+00
 0.31625  0.0000000E+00
 0.39675  0.0000000E+00
 0.47725  0.0000000E+00
 0.55775  0.0000000E+00
 0.63825  0.0000000E+00
 0.71875  0.0000000E+00
 0.79925  0.0000000E+00
 0.87975  0.0000000E+00
 0.96025  0.0000000E+00
 1.04075  0.0000000E+00
 1.12125  0.0000000E+00
 1.20175  0.0000000E+00
 1.28225  0.0000000E+00
 1.36275  0.0000000E+00
 1.44325  0.0000000E+00
 1.52375  0.0000000E+00
 1.60425  0.0000000E+00
 1.68475  0.0000000E+00
 1.76525  0.0000000E+00
 1.84575  0.0000000E+00
 1.92625  0.0000000E+00
 2.00675  0.0000000E+00
 2.08725  0.0000000E+00
 2.16775  0.0000000E+00
 2.24825  0.0000000E+00
 2.32875  0.0000000E+00
 2.40925  0.0000000E+00
 2.48975  0.0000000E+00
 2.57025  0.0000000E+00
 2.65075  0.0000000E+00
 2.73125  0.0000000E+00
 2.81175  0.0000000E+00
 2.89225  35.3737
 2.97275  35.7252
 3.05325  35.3211
 3.13375  36.4516
 3.21425  35.5936
 3.29475  34.075
 3.37525  35.7924
 3.45575  34.4142
 3.53625  34.6199
 3.61675  33.5086
 3.69725  33.4345
 3.77775  33.7744
 3.85825  32.8668
 3.93875  33.1525
 4.01925  32.7563
 4.09975  32.4002
 4.18025  31.7303
 4.26075  31.9553
 4.34125  32.2729
 4.42175  32.8562
 4.50225  32.7156
 4.58275  33.0846
 4.66325  32.831
 4.74375  32.9547
 4.82425  32.5073
 4.90475  32.8656
 4.98525  33.0548
 5.06575  33.4017
 5.14625  33.5697
 5.22675  34.2395
 5.30725  34.2341
 5.38775  34.3871
 5.46825  34.9813
 5.54875  34.9788
 5.62925  35.6268
 5.70975  35.9456
 5.79025  36.0304
 5.87075  36.7223
 5.95125  43.0697
 6.03175  41.2585
 6.11225  37.1246
 6.19275  37.4512
 6.27325  37.5523
 6.35375  38.1452
 6.43425  38.6194
 6.51475  39.4043
 6.59525  39.8485
 6.67575  40.6691
 6.75625  41.1139
 6.83675  41.9675
 6.91725  42.1791
 6.99775  42.399
 7.07825  42.9654
 7.15875  43.2912
 7.23925  43.837
 7.31975  44.04
 7.40025  44.3462
 7.48075  44.776
 7.56125  44.6585
 7.64175  44.7021
 7.72225  44.7384
 7.80275  44.789
 7.88325  44.3242
 7.96375  44.0215
 8.04425  43.7214
 8.12475  43.1438
 8.20525  42.1728
 8.28575  41.2301
 8.36625  40.5675
 8.44675  39.4587
 8.52725  38.0642
 8.60775  36.8735
 8.68825  35.491
 8.76875  34.4583
 8.84925  33.4255
 8.92975  32.1037
 9.01025  31.0987
 9.09075  30.2853
 9.17125  29.5782
 9.25175  28.4387
 9.33225  27.8594
 9.41275  27.4192
 9.49325  27.0256
 9.57375  26.3301
 9.65425  26.0085
 9.73475  25.6903
 9.81525  25.5547
 9.89575  25.0186
 9.97625  24.8336
 10.0567  24.6223
 10.1373  24.4037
 10.2178  24.1813
 10.2982  23.9906
 10.3788  23.6691
 10.4593  23.7176
 10.5397  23.6068
 10.6203  23.5694
 10.7007  23.433
 10.7813  23.3552
 10.8618  23.1368
 10.9422  23.0446
 11.0228  23.0288
 11.1033  22.9483
 11.1837  23.0167
 11.2643  22.8219
 11.3447  22.8838
 11.4253  23.3369
 11.5058  24.2558
 11.5862  36.2126
 11.6668  24.5578
 11.7473  22.9634
 11.8277  23.0205
 11.9083  23.0847
 11.9887  24.4526
 12.0693  25.3304
 12.1498  24.3217
 12.2302  22.8969
 12.3108  22.8095
 12.3913  22.9989
 12.4718  23.0529
 12.5523  23.2108
 12.6328  23.2183
 12.7133  23.3165
 12.7938  23.5571
 12.8742  23.6205
 12.9548  24.1476
 13.0353  24.5701
 13.1158  25.3629
 13.1963  25.9982
 13.2768  26.9247
 13.3573  28.1355
 13.4378  28.7788
 13.5183  29.7395
 13.5988  30.2027
 13.6793  30.1429
 13.7598  29.8965
 13.8403  30.0655
 13.9208  37.8488
 14.0013  38.7264
 14.0818  28.6649
 14.1623  27.6703
 14.2428  26.9225
 14.3233  26.6671
 14.4038  26.3382
 14.4843  26.0059
 14.5648  25.8632
 14.6453  25.5217
 14.7258  25.5438
 14.8063  25.4879
 14.8868  25.1614
 14.9673  25.3168
 15.0478  25.3835
 15.1283  26.059
 15.2088  32.825
 15.2892  25.4862
 15.3698  25.0047
 15.4503  24.8788
 15.5308  24.925
 15.6113  24.8102
 15.6918  24.9498
 15.7723  25.0367
 15.8528  24.834
 15.9332  24.9252
 16.0138  24.9099
 16.0943  25.1777
 16.1748  25.2503
 16.2553  27.0557
 16.3358  25.3283
 16.4163  25.0099
 16.4967  24.9897
 16.5773  24.9998
 16.6578  24.7859
 16.7383  24.8809
 16.8188  24.616
 16.8992  24.6561
 16.9798  24.6551
 17.0603  24.5601
 17.1408  24.5016
 17.2213  24.5548
 17.3017  24.3414
 17.3823  24.3165
 17.4628  24.3059
 17.5433  24.2256
 17.6238  24.1936
 17.7042  24.0917
 17.7847  24.1513
 17.8653  24.2487
 17.9458  24.1899
 18.0263  24.7969
 18.1068  26.0949
 18.1872  24.432
 18.2678  23.9186
 18.3483  24.0245
 18.4288  23.8304
 18.5093  23.857
 18.5897  23.847
 18.6703  23.7664
 18.7508  23.8601
 18.8313  23.8541
 18.9118  23.7644
 18.9922  23.8494
 19.0727  23.7218
 19.1533  23.9216
 19.2338  23.7334
 19.3143  23.8948
 19.3948  23.9839
 19.4752  24.1555
 19.5558  24.2522
 19.6363  25.2304
 19.7168  29.2656
 19.7973  27.1052
 19.8777  28.2721
 19.9582  24.4438
 20.0388  24.1911
 20.1193  24.1642
 20.1998  24.0132
 20.2803  24.0234
 20.3607  24.0107
 20.4413  24.1564
 20.5218  24.1887
 20.6023  24.2608
 20.6828  24.6525
 20.7632  26.9787
 20.8438  25.0303
 20.9243  24.297
 21.0048  24.3257
 21.0853  24.3411
 21.1658  24.216
 21.2462  24.2474
 21.3268  24.1655
 21.4073  24.2401
 21.4878  24.2171
 21.5683  24.3219
 21.6487  24.3488
 21.7293  24.3704
 21.8098  24.364
 21.8903  24.4007
 21.9708  24.3899
 22.0512  24.4799
 22.1318  24.6279
 22.2123  24.6152
 22.2928  24.6664
 22.3733  24.7556
 22.4538  24.8766
 22.5343  25.0289
 22.6148  25.278
 22.6953  25.4448
 22.7758  25.6119
 22.8563  25.7702
 22.9367  26.1995
 22.9943  26.5211

File: Data_0026.chi
F:\20151113_APS_34IDE\\Brian\Particle1\OCV\Data_0026.tif
2-Theta Angle (Degrees)
Intensity
       2000
 0.07475  0.0000000E+00
 0.15525  0.0000000E+00
 0.23575  0.0000000E+00
 0.31625  0.0000000E+00
 0.39675  0.0000000E+00
 0.47725  0.0000000E+00
 0.55775  0.0000000E+00
 0.63825  0.0000000E+00
 0.71875  0.0000000E+00
 0.79925  0.0000000E+00
 0.87975  0.0000000E+00
 0.96025  0.0000000E+00
 1.04075  0.0000000E+00
 1.12125  0.0000000E+00
 1.20175  0.0000000E+00
 1.28225  0.0000000E+00
 1.36275  0.0000000E+00
 1.44325  0.0000000E+00
 1.52375  0.0000000E+00
 1.60425  0.0000000E+00
 1.68475  0.0000000E+00
 1.76525  0.0000000E+00
 1.84575  0.0000000E+00
 1.92625  0.0000000E+00
 2.00675  0.0000000E+00
 2.08725  0.0000000E+00
 2.16775  0.0000000E+00
 2.24825  0.0000000E+00
 2.32875  0.0000000E+00
 2.40925  0.0000000E+00
 2.48975  0.0000000E+00
 2.57025  0.0000000E+00
 2.65075  0.0000000E+00
 2.73125  0.0000000E+00
 2.81175  0.0000000E+00
 2.89225  36.0796
 2.97275  36.2519
 3.05325  36.3202
 3.13375  35.4506
 3.21425  35.5474
 3.29475  34.5981
 3.37525  34.8181
 3.45575  34.3505
 3.53625  33.4966
 3.61675  33.8928
 3.69725  32.9183
 3.77775  33.4945
 3.85825  33
 3.93875  32.2647
 4.01925  32.5932
 4.09975  32.5771
 4.18025  32.1827
 4.26075  32.1956
 4.34125  32.4871
 4.42175  32.5793
 4.50225  32.5647
 4.58275  32.296
 4.66325  32.6737
 4.74375  32.6036
 4.82425  32.729
 4.90475  32.9059
 4.98525  33.0032
 5.06575  33.1572
 5.14625  33.4482
 5.22675  33.8902
 5.30725  34.2004
 5.38775  34.339
 5.46825  34.5616
 5.54875  35.1152
 5.62925  35.475
 5.70975  35.9449
 5.79025  35.8769
 5.87075  37.0772
 5.95125  52.081
 6.03175  51.3307
 6.11225  37.8265
 6.19275  37.3397
 6.27325  37.6203
 6.35375  38.1646
 6.43425  38.5591
 6.51475  39.2577
 6.59525  39.8922
 6.67575  40.3982
 6.75625  40.636
 6.83675  41.428
 6.91725  42.4133
 6.99775  42.335
 7.07825  42.627
 7.15875  43.3689
 7.23925  43.587
 7.31975  43.9296
 7.40025  44.3408
 7.48075  44.5545
 7.56125  44.3823
 7.64175  44.5973
 7.72225  44.7168
 7.80275  45.3242
 7.88325  44.2437
 7.96375  44.17
 8.04425  43.5975
 8.12475  43.1697
 8.20525  42.111
 8.28575  41.3931
 8.36625  40.4004
 8.44675  39.227
 8.52725  38.3459
 8.60775  36.7819
 8.68825  35.7978
 8.76875  34.5901
 8.84925  33.4043
 8.92975  32.3325
 9.01025  31.1649
 9.09075  30.3292
 9.17125  29.6614
 9.25175  28.964
 9.33225  28.0895
 9.41275  27.6566
 9.49325  27.0743
 9.57375  26.3731
 9.65425  26.1725
 9.73475  26.0973
 9.81525  25.5458
 9.89575  25.1579
 9.97625  24.91
 10.0567  24.7192
 10.1373  24.4478
 10.2178  24.473
 10.2982  24.1993
 10.3788  23.9422
 10.4593  23.8424
 10.5397  23.5587
 10.6203  23.5898
 10.7007  23.4092
 10.7813  23.2677
 10.8618  23.241
 10.9422  23.2425
 11.0228  23.0927
 11.1033  22.9946
 11.1837  22.975
 11.2643  22.9608
 11.3447  22.9948
 11.4253  23.5144
 11.5058  23.4474
 11.5862  31.2253
 11.6668  24.9304
 11.7473  23.1866
 11.8277  23.0038
 11.9083  23.0528
 11.9887  25.0049
 12.0693  24.6346
 12.1498  24.3289
 12.2302  22.969
 12.3108  22.9781
 12.3913  23.0592
 12.4718  23.0599
 12.5523  23.1341
 12.6328  23.2414
 12.7133  23.3948
 12.7938  23.4977
 12.8742  23.6878
 12.9548  24.2516
 13.0353  24.5828
 13.1158  25.207
 13.1963  26.0855
 13.2768  26.8894
 13.3573  27.9595
 13.4378  28.8987
 13.5183  29.7868
 13.5988  30.2072
 13.6793  30.0957
 13.7598  29.964
 13.8403  29.6776
 13.9208  34.6509
 14.0013  34.1184
 14.0818  28.418
 14.1623  27.4708
 14.2428  27.0062
 14.3233  26.6156
 14.4038  26.4598
 14.4843  26.2196
 14.5648  26.0232
 14.6453  25.6953
 14.7258  25.5579
 14.8063  25.5689
 14.8868  25.3572
 14.9673  25.4276
 15.0478  25.3834
 15.1283  25.5809
 15.2088  27.2948
 15.2892  25.2295
 15.3698  24.9938
 15.4503  25.0923
 15.5308  24.9891
 15.6113  24.906
 15.6918  25.0353
 15.7723  25.0032
 15.8528  24.999
 15.9332  25.0166
 16.0138  24.9562
 16.0943  24.9906
 16.1748  25.1948
 16.2553  26.5547
 16.3358  25.4841
 16.4163  25.1287
 16.4967  25.0759
 16.5773  24.9679
 16.6578  24.8583
 16.7383  24.9393
 16.8188  24.7981
 16.8992  24.6855
 16.9798  24.742
 17.0603  24.5847
 17.1408  24.7474
 17.2213  24.6154
 17.3017  24.4346
 17.3823  24.2673
 17.4628  24.4346
 17.5433  24.3259
 17.6238  24.1997
 17.7042  24.2898
 17.7847  24.2466
 17.8653  24.204
 17.9458  24.4146
 18.0263  25.4586
 18.1068  27.858
 18.1872  24.7356
 18.2678  24.1101
 18.3483  24.079
 18.4288  24.242
 18.5093  23.9657
 18.5897  24.0603
 18.6703  23.9039
 18.7508  23.9077
 18.8313  23.8415
 18.9118  23.9273
 18.9922  23.9525
 19.0727  23.8963
 19.1533  23.9676
 19.2338  23.9929
 19.3143  24.077
 19.3948  23.9715
 19.4752  24.1691
 19.5558  24.2327
 19.6363  24.6802
 19.7168  27.5682
 19.7973  25.911
 19.8777  28.45
 19.9582  24.5744
 20.0388  24.2351
 20.1193  24.102
 20.1998  24.1739
 20.2803  24.1529
 20.3607  24.0425
 20.4413  24.1772
 20.5218  24.08
 20.6023  24.3863
 20.6828  24.5014
 20.7632  26.4573
 20.8438  25.1503
 20.9243  24.4453
 21.0048  24.3345
 21.0853  24.3491
 21.1658  24.278
 21.2462  24.2711
 21.3268  24.2949
 21.4073  24.3358
 21.4878  24.4022
 21.5683  24.4398
 21.6487  24.6093
 21.7293  24.4312
 21.8098  24.4249
 21.8903  24.5307
 21.9708  24.5675
 22.0512  24.6358
 22.1318  24.7583
 22.2123  24.6927
 22.2928  24.7549
 22.3733  24.9516
 22.4538  25.0194
 22.5343  25.1273
 22.6148  25.3166
 22.6953  25.4392
 22.7758  25.5354
 22.8563  25.9913
 22.9367  26.2973
 22.9943  26.7586