Folder: scimap-tests/test-data-xrd/xrd-map-34-ID-E (part 16)

File: Data_0065.chi
F:\20151113_APS_34IDE\\Brian\Particle1\OCV\Data_0065.tif
2-Theta Angle (Degrees)
Intensity
       2000
 0.07475  0.0000000E+00
 0.15525  0.0000000E+00
 0.23575  0.0000000E+00
 0.31625  0.0000000E+00
 0.39675  0.0000000E+00
 0.47725  0.0000000E+00
 0.55775  0.0000000E+00
 0.63825  0.0000000E+00
 0.71875  0.0000000E+00
 0.79925  0.0000000E+00
 0.87975  0.0000000E+00
 0.96025  0.0000000E+00
 1.04075  0.0000000E+00
 1.12125  0.0000000E+00
 1.20175  0.0000000E+00
 1.28225  0.0000000E+00
 1.36275  0.0000000E+00
 1.44325  0.0000000E+00
 1.52375  0.0000000E+00
 1.60425  0.0000000E+00
 1.68475  0.0000000E+00
 1.76525  0.0000000E+00
 1.84575  0.0000000E+00
 1.92625  0.0000000E+00
 2.00675  0.0000000E+00
 2.08725  0.0000000E+00
 2.16775  0.0000000E+00
 2.24825  0.0000000E+00
 2.32875  0.0000000E+00
 2.40925  0.0000000E+00
 2.48975  0.0000000E+00
 2.57025  0.0000000E+00
 2.65075  0.0000000E+00
 2.73125  0.0000000E+00
 2.81175  0.0000000E+00
 2.89225  35.8925
 2.97275  35.8735
 3.05325  34.8435
 3.13375  34.8396
 3.21425  35.6067
 3.29475  34.7254
 3.37525  34.0938
 3.45575  33.8548
 3.53625  33.9206
 3.61675  33.4503
 3.69725  32.7937
 3.77775  32.9657
 3.85825  32.5308
 3.93875  32.5225
 4.01925  32.8262
 4.09975  32.4088
 4.18025  31.7345
 4.26075  31.9444
 4.34125  32.0631
 4.42175  31.6943
 4.50225  31.949
 4.58275  32.5033
 4.66325  32.4142
 4.74375  32.4088
 4.82425  32.2339
 4.90475  32.5107
 4.98525  32.4272
 5.06575  33.3011
 5.14625  33.4794
 5.22675  33.2979
 5.30725  33.9843
 5.38775  34.4798
 5.46825  34.3411
 5.54875  34.5997
 5.62925  34.8088
 5.70975  34.8711
 5.79025  35.3901
 5.87075  35.4558
 5.95125  37.5928
 6.03175  37.2325
 6.11225  36.347
 6.19275  36.4476
 6.27325  37.1757
 6.35375  37.5972
 6.43425  37.8978
 6.51475  38.5424
 6.59525  39.0282
 6.67575  39.5918
 6.75625  40.1697
 6.83675  40.7898
 6.91725  41.4149
 6.99775  41.7283
 7.07825  41.8252
 7.15875  42.2702
 7.23925  42.8954
 7.31975  43.2243
 7.40025  43.3539
 7.48075  43.4488
 7.56125  43.5397
 7.64175  43.8426
 7.72225  43.431
 7.80275  43.7943
 7.88325  43.2748
 7.96375  43.0976
 8.04425  42.8432
 8.12475  41.8953
 8.20525  41.3132
 8.28575  40.3684
 8.36625  39.405
 8.44675  38.3787
 8.52725  37.0275
 8.60775  35.8226
 8.68825  34.5839
 8.76875  33.3236
 8.84925  32.098
 8.92975  31.1147
 9.01025  30.0555
 9.09075  29.4742
 9.17125  28.6031
 9.25175  27.9449
 9.33225  27.1717
 9.41275  26.5178
 9.49325  26.1394
 9.57375  25.5566
 9.65425  25.2403
 9.73475  25.0122
 9.81525  24.5159
 9.89575  24.191
 9.97625  24.0236
 10.0567  23.9008
 10.1373  23.4431
 10.2178  23.4456
 10.2982  23.1402
 10.3788  22.9358
 10.4593  22.8555
 10.5397  22.5639
 10.6203  22.7005
 10.7007  22.4083
 10.7813  22.4242
 10.8618  22.5974
 10.9422  22.3052
 11.0228  22.3747
 11.1033  22.2853
 11.1837  22.0157
 11.2643  22.1313
 11.3447  22.1471
 11.4253  22.4499
 11.5058  22.3104
 11.5862  24.1114
 11.6668  22.434
 11.7473  22.1063
 11.8277  22.1135
 11.9083  22.2392
 11.9887  22.4132
 12.0693  22.5586
 12.1498  22.4879
 12.2302  22.149
 12.3108  22.142
 12.3913  22.1583
 12.4718  22.1771
 12.5523  22.3094
 12.6328  22.3547
 12.7133  22.5484
 12.7938  22.7553
 12.8742  23.1905
 12.9548  23.2404
 13.0353  23.8389
 13.1158  24.5114
 13.1963  25.1774
 13.2768  26.1864
 13.3573  27.2023
 13.4378  28.1523
 13.5183  28.8284
 13.5988  29.1998
 13.6793  29.3634
 13.7598  28.8179
 13.8403  28.5779
 13.9208  29.2529
 14.0013  28.6229
 14.0818  26.9794
 14.1623  26.5633
 14.2428  26.0714
 14.3233  25.7544
 14.4038  25.6256
 14.4843  25.3044
 14.5648  24.9856
 14.6453  24.6849
 14.7258  24.7322
 14.8063  24.8546
 14.8868  24.6023
 14.9673  24.4592
 15.0478  24.5291
 15.1283  24.5153
 15.2088  25.0184
 15.2892  24.1204
 15.3698  24.1111
 15.4503  24.0796
 15.5308  24.1493
 15.6113  24.2518
 15.6918  24.2312
 15.7723  24.1538
 15.8528  24.0821
 15.9332  24.2637
 16.0138  24.3008
 16.0943  24.2521
 16.1748  24.2981
 16.2553  24.7856
 16.3358  24.4452
 16.4163  24.3993
 16.4967  24.1333
 16.5773  24.2224
 16.6578  24.0251
 16.7383  24.0786
 16.8188  23.9706
 16.8992  23.8607
 16.9798  23.9128
 17.0603  23.7868
 17.1408  23.8762
 17.2213  23.8263
 17.3017  23.7234
 17.3823  23.6186
 17.4628  23.5706
 17.5433  23.651
 17.6238  23.5948
 17.7042  23.3742
 17.7847  23.4891
 17.8653  23.3731
 17.9458  23.278
 18.0263  23.5771
 18.1068  23.621
 18.1872  23.3692
 18.2678  23.2548
 18.3483  23.3456
 18.4288  23.3043
 18.5093  23.2774
 18.5897  23.0999
 18.6703  23.1642
 18.7508  23.0459
 18.8313  23.2059
 18.9118  23.0577
 18.9922  23.0836
 19.0727  23.169
 19.1533  23.2761
 19.2338  23.1083
 19.3143  23.092
 19.3948  23.331
 19.4752  23.1524
 19.5558  23.1912
 19.6363  23.285
 19.7168  24.1182
 19.7973  23.7446
 19.8777  23.9163
 19.9582  23.3318
 20.0388  23.3257
 20.1193  23.2679
 20.1998  23.325
 20.2803  23.2149
 20.3607  23.3201
 20.4413  23.4797
 20.5218  23.4024
 20.6023  23.4605
 20.6828  23.5462
 20.7632  23.7824
 20.8438  23.4564
 20.9243  23.6129
 21.0048  23.517
 21.0853  23.4515
 21.1658  23.4834
 21.2462  23.5132
 21.3268  23.5098
 21.4073  23.5522
 21.4878  23.6199
 21.5683  23.8032
 21.6487  23.6635
 21.7293  23.7258
 21.8098  23.8273
 21.8903  23.7219
 21.9708  23.8404
 22.0512  24.0581
 22.1318  23.9849
 22.2123  23.9702
 22.2928  24.0444
 22.3733  24.2556
 22.4538  24.3075
 22.5343  24.42
 22.6148  24.5218
 22.6953  24.8051
 22.7758  24.9531
 22.8563  25.1853
 22.9367  25.4517
 22.9943  25.8598

File: Data_0066.chi
F:\20151113_APS_34IDE\\Brian\Particle1\OCV\Data_0066.tif
2-Theta Angle (Degrees)
Intensity
       2000
 0.07475  0.0000000E+00
 0.15525  0.0000000E+00
 0.23575  0.0000000E+00
 0.31625  0.0000000E+00
 0.39675  0.0000000E+00
 0.47725  0.0000000E+00
 0.55775  0.0000000E+00
 0.63825  0.0000000E+00
 0.71875  0.0000000E+00
 0.79925  0.0000000E+00
 0.87975  0.0000000E+00
 0.96025  0.0000000E+00
 1.04075  0.0000000E+00
 1.12125  0.0000000E+00
 1.20175  0.0000000E+00
 1.28225  0.0000000E+00
 1.36275  0.0000000E+00
 1.44325  0.0000000E+00
 1.52375  0.0000000E+00
 1.60425  0.0000000E+00
 1.68475  0.0000000E+00
 1.76525  0.0000000E+00
 1.84575  0.0000000E+00
 1.92625  0.0000000E+00
 2.00675  0.0000000E+00
 2.08725  0.0000000E+00
 2.16775  0.0000000E+00
 2.24825  0.0000000E+00
 2.32875  0.0000000E+00
 2.40925  0.0000000E+00
 2.48975  0.0000000E+00
 2.57025  0.0000000E+00
 2.65075  0.0000000E+00
 2.73125  0.0000000E+00
 2.81175  0.0000000E+00
 2.89225  35.4635
 2.97275  35.7604
 3.05325  34.8706
 3.13375  34.6392
 3.21425  34.754
 3.29475  33.741
 3.37525  34.5626
 3.45575  34.6486
 3.53625  34.4259
 3.61675  32.8138
 3.69725  33.241
 3.77775  32.7795
 3.85825  31.9729
 3.93875  32.2937
 4.01925  32.5905
 4.09975  32.0599
 4.18025  32.1608
 4.26075  32.2188
 4.34125  32.0881
 4.42175  32.1213
 4.50225  32.1409
 4.58275  32.3199
 4.66325  32.5052
 4.74375  32.0754
 4.82425  32.3381
 4.90475  32.4348
 4.98525  32.658
 5.06575  33.0055
 5.14625  33.2312
 5.22675  33.6101
 5.30725  33.4769
 5.38775  33.9817
 5.46825  34.2476
 5.54875  34.793
 5.62925  34.411
 5.70975  34.9174
 5.79025  35.3346
 5.87075  35.2163
 5.95125  37.3444
 6.03175  37.3565
 6.11225  36.4396
 6.19275  36.9064
 6.27325  37.1076
 6.35375  37.6783
 6.43425  38.1735
 6.51475  38.6297
 6.59525  39.1345
 6.67575  39.6712
 6.75625  40.2698
 6.83675  41.0825
 6.91725  41.3586
 6.99775  41.7674
 7.07825  42.4749
 7.15875  42.6653
 7.23925  43.1152
 7.31975  43.1769
 7.40025  43.2714
 7.48075  43.5626
 7.56125  43.9802
 7.64175  43.7086
 7.72225  43.9188
 7.80275  43.887
 7.88325  43.6793
 7.96375  43.3582
 8.04425  42.767
 8.12475  42.3859
 8.20525  41.2963
 8.28575  40.5326
 8.36625  39.2008
 8.44675  38.2211
 8.52725  37.3016
 8.60775  35.7142
 8.68825  34.735
 8.76875  33.3405
 8.84925  32.3108
 8.92975  31.468
 9.01025  30.4374
 9.09075  29.3628
 9.17125  28.6829
 9.25175  27.8829
 9.33225  27.0789
 9.41275  26.5333
 9.49325  26.1875
 9.57375  25.5589
 9.65425  25.2015
 9.73475  24.7897
 9.81525  24.4483
 9.89575  24.3793
 9.97625  23.8802
 10.0567  23.7779
 10.1373  23.6276
 10.2178  23.5796
 10.2982  23.3527
 10.3788  23.1344
 10.4593  22.9901
 10.5397  22.7021
 10.6203  22.6778
 10.7007  22.6017
 10.7813  22.444
 10.8618  22.3733
 10.9422  22.2927
 11.0228  22.1158
 11.1033  22.1677
 11.1837  22.2069
 11.2643  22.1939
 11.3447  22.0683
 11.4253  22.2847
 11.5058  22.1755
 11.5862  23.201
 11.6668  22.4248
 11.7473  22.1313
 11.8277  22.1333
 11.9083  22.0531
 11.9887  22.3701
 12.0693  22.3445
 12.1498  22.4845
 12.2302  22.0646
 12.3108  22.6934
 12.3913  22.2481
 12.4718  22.2286
 12.5523  22.4042
 12.6328  22.5392
 12.7133  22.7577
 12.7938  22.8638
 12.8742  23.1985
 12.9548  23.4153
 13.0353  23.8695
 13.1158  24.6095
 13.1963  25.2019
 13.2768  26.3661
 13.3573  27.4501
 13.4378  28.309
 13.5183  28.8399
 13.5988  29.1859
 13.6793  29.3347
 13.7598  28.8712
 13.8403  28.3767
 13.9208  29.4833
 14.0013  28.8463
 14.0818  27.1566
 14.1623  26.5465
 14.2428  26.043
 14.3233  25.8741
 14.4038  25.58
 14.4843  25.192
 14.5648  25.4038
 14.6453  24.925
 14.7258  24.8173
 14.8063  24.6738
 14.8868  24.5787
 14.9673  24.5238
 15.0478  24.3811
 15.1283  24.5143
 15.2088  24.7262
 15.2892  23.9841
 15.3698  24.0993
 15.4503  24.1384
 15.5308  24.0819
 15.6113  24.1624
 15.6918  24.3199
 15.7723  24.2395
 15.8528  24.1792
 15.9332  24.2071
 16.0138  24.1673
 16.0943  24.3925
 16.1748  24.5368
 16.2553  24.6637
 16.3358  24.5689
 16.4163  24.3473
 16.4967  24.4572
 16.5773  24.2437
 16.6578  24.1568
 16.7383  24.2147
 16.8188  24.1239
 16.8992  23.9583
 16.9798  23.9381
 17.0603  23.8151
 17.1408  23.8591
 17.2213  23.8618
 17.3017  23.684
 17.3823  23.6451
 17.4628  23.5631
 17.5433  23.5888
 17.6238  23.5327
 17.7042  23.4837
 17.7847  23.4905
 17.8653  23.4458
 17.9458  23.3883
 18.0263  23.5329
 18.1068  23.8813
 18.1872  23.2016
 18.2678  23.1674
 18.3483  23.2025
 18.4288  23.246
 18.5093  23.2482
 18.5897  23.1569
 18.6703  23.1258
 18.7508  23.0764
 18.8313  23.1696
 18.9118  23.1094
 18.9922  23.0574
 19.0727  23.1871
 19.1533  23.1379
 19.2338  23.0576
 19.3143  23.1118
 19.3948  23.201
 19.4752  23.4495
 19.5558  23.2418
 19.6363  23.244
 19.7168  23.8344
 19.7973  23.4836
 19.8777  23.7027
 19.9582  23.2849
 20.0388  23.2689
 20.1193  23.1718
 20.1998  23.3581
 20.2803  23.2174
 20.3607  23.2651
 20.4413  23.5399
 20.5218  23.248
 20.6023  23.4141
 20.6828  23.5214
 20.7632  23.8524
 20.8438  23.5424
 20.9243  23.5482
 21.0048  23.5018
 21.0853  23.4576
 21.1658  23.4768
 21.2462  23.6101
 21.3268  23.5368
 21.4073  23.6137
 21.4878  23.5768
 21.5683  23.7499
 21.6487  23.8165
 21.7293  23.7113
 21.8098  23.7366
 21.8903  23.7905
 21.9708  23.8622
 22.0512  23.8627
 22.1318  23.9584
 22.2123  24.083
 22.2928  24.1273
 22.3733  24.1557
 22.4538  24.3435
 22.5343  24.5771
 22.6148  24.6223
 22.6953  24.7481
 22.7758  24.9982
 22.8563  25.1345
 22.9367  25.5035
 22.9943  25.885

File: Data_0067.chi
F:\20151113_APS_34IDE\\Brian\Particle1\OCV\Data_0067.tif
2-Theta Angle (Degrees)
Intensity
       2000
 0.07475  0.0000000E+00
 0.15525  0.0000000E+00
 0.23575  0.0000000E+00
 0.31625  0.0000000E+00
 0.39675  0.0000000E+00
 0.47725  0.0000000E+00
 0.55775  0.0000000E+00
 0.63825  0.0000000E+00
 0.71875  0.0000000E+00
 0.79925  0.0000000E+00
 0.87975  0.0000000E+00
 0.96025  0.0000000E+00
 1.04075  0.0000000E+00
 1.12125  0.0000000E+00
 1.20175  0.0000000E+00
 1.28225  0.0000000E+00
 1.36275  0.0000000E+00
 1.44325  0.0000000E+00
 1.52375  0.0000000E+00
 1.60425  0.0000000E+00
 1.68475  0.0000000E+00
 1.76525  0.0000000E+00
 1.84575  0.0000000E+00
 1.92625  0.0000000E+00
 2.00675  0.0000000E+00
 2.08725  0.0000000E+00
 2.16775  0.0000000E+00
 2.24825  0.0000000E+00
 2.32875  0.0000000E+00
 2.40925  0.0000000E+00
 2.48975  0.0000000E+00
 2.57025  0.0000000E+00
 2.65075  0.0000000E+00
 2.73125  0.0000000E+00
 2.81175  0.0000000E+00
 2.89225  34.2749
 2.97275  34.6482
 3.05325  35.4418
 3.13375  34.1987
 3.21425  35.1759
 3.29475  35.2899
 3.37525  34.0322
 3.45575  34.2649
 3.53625  33.4039
 3.61675  32.9219
 3.69725  32.6962
 3.77775  32.9098
 3.85825  32.4204
 3.93875  31.9148
 4.01925  32.888
 4.09975  32.2633
 4.18025  32.0011
 4.26075  31.8997
 4.34125  31.9229
 4.42175  32.179
 4.50225  32.2305
 4.58275  32.6096
 4.66325  32.7573
 4.74375  32.3385
 4.82425  32.5474
 4.90475  32.8943
 4.98525  32.8879
 5.06575  33.0247
 5.14625  33.5519
 5.22675  34.0456
 5.30725  33.8082
 5.38775  34.202
 5.46825  34.7219
 5.54875  34.854
 5.62925  34.9105
 5.70975  35.2868
 5.79025  35.6752
 5.87075  36.233
 5.95125  46.9824
 6.03175  48.1072
 6.11225  36.9923
 6.19275  37.0232
 6.27325  37.0349
 6.35375  37.7456
 6.43425  37.8171
 6.51475  38.5469
 6.59525  38.932
 6.67575  40.063
 6.75625  40.2094
 6.83675  40.8322
 6.91725  41.3182
 6.99775  41.6947
 7.07825  42.1597
 7.15875  42.9523
 7.23925  43.1924
 7.31975  43.0211
 7.40025  43.4617
 7.48075  43.6705
 7.56125  43.8588
 7.64175  43.9425
 7.72225  43.5858
 7.80275  43.6261
 7.88325  43.6328
 7.96375  43.1738
 8.04425  42.9577
 8.12475  42.2158
 8.20525  41.6511
 8.28575  40.7052
 8.36625  39.5011
 8.44675  38.3677
 8.52725  37.259
 8.60775  36.0214
 8.68825  34.9883
 8.76875  33.6767
 8.84925  32.4451
 8.92975  31.4264
 9.01025  30.427
 9.09075  29.8084
 9.17125  28.869
 9.25175  28.0333
 9.33225  27.1625
 9.41275  26.7287
 9.49325  26.4063
 9.57375  25.8221
 9.65425  25.5596
 9.73475  25.3065
 9.81525  24.931
 9.89575  24.5536
 9.97625  24.4123
 10.0567  24.0443
 10.1373  23.8348
 10.2178  23.6897
 10.2982  23.4853
 10.3788  23.1211
 10.4593  23.155
 10.5397  23.2036
 10.6203  22.9634
 10.7007  22.7951
 10.7813  22.7928
 10.8618  22.735
 10.9422  22.5876
 11.0228  22.5505
 11.1033  22.4911
 11.1837  22.657
 11.2643  22.392
 11.3447  22.4973
 11.4253  22.4982
 11.5058  22.9429
 11.5862  30.8848
 11.6668  23.7849
 11.7473  22.5077
 11.8277  22.4917
 11.9083  22.5319
 11.9887  24.288
 12.0693  23.8075
 12.1498  23.928
 12.2302  22.5603
 12.3108  22.4955
 12.3913  22.4455
 12.4718  22.4429
 12.5523  22.6749
 12.6328  22.7722
 12.7133  22.8531
 12.7938  23.1219
 12.8742  23.5164
 12.9548  23.6895
 13.0353  24.1059
 13.1158  24.7295
 13.1963  25.6383
 13.2768  26.3601
 13.3573  27.6633
 13.4378  28.3957
 13.5183  29.1223
 13.5988  29.7177
 13.6793  29.6558
 13.7598  29.4095
 13.8403  29.1891
 13.9208  34.0725
 14.0013  32.9513
 14.0818  27.7078
 14.1623  27.0215
 14.2428  26.4667
 14.3233  26.0972
 14.4038  25.9677
 14.4843  25.775
 14.5648  25.4361
 14.6453  25.1734
 14.7258  25.1226
 14.8063  24.9468
 14.8868  24.823
 14.9673  24.6661
 15.0478  24.7166
 15.1283  25.2277
 15.2088  26.998
 15.2892  24.6956
 15.3698  24.628
 15.4503  24.5077
 15.5308  24.5657
 15.6113  24.5074
 15.6918  24.5462
 15.7723  24.5836
 15.8528  24.4139
 15.9332  24.5279
 16.0138  24.5321
 16.0943  24.7415
 16.1748  25.137
 16.2553  29.565
 16.3358  25.0882
 16.4163  24.6915
 16.4967  24.695
 16.5773  24.5459
 16.6578  24.5518
 16.7383  24.4904
 16.8188  24.2844
 16.8992  24.3719
 16.9798  24.2879
 17.0603  24.1436
 17.1408  24.1975
 17.2213  24.1296
 17.3017  24.0538
 17.3823  23.9508
 17.4628  23.9264
 17.5433  23.8432
 17.6238  23.9507
 17.7042  23.7051
 17.7847  23.8295
 17.8653  23.8255
 17.9458  23.7447
 18.0263  24.3797
 18.1068  26.83
 18.1872  24.2299
 18.2678  23.6804
 18.3483  23.4843
 18.4288  23.6537
 18.5093  23.493
 18.5897  23.4579
 18.6703  23.5654
 18.7508  23.4391
 18.8313  23.4153
 18.9118  23.542
 18.9922  23.4035
 19.0727  23.5502
 19.1533  23.5727
 19.2338  23.4763
 19.3143  23.4657
 19.3948  23.4638
 19.4752  23.5591
 19.5558  23.8312
 19.6363  24.5556
 19.7168  26.8892
 19.7973  26.3072
 19.8777  27.3856
 19.9582  24.1393
 20.0388  23.9625
 20.1193  23.7686
 20.1998  23.7035
 20.2803  23.6602
 20.3607  23.7383
 20.4413  23.8349
 20.5218  23.7388
 20.6023  24.0778
 20.6828  24.6749
 20.7632  30.0501
 20.8438  24.5603
 20.9243  24.0498
 21.0048  23.7639
 21.0853  23.9447
 21.1658  23.9083
 21.2462  23.8531
 21.3268  23.8661
 21.4073  23.9276
 21.4878  24.0007
 21.5683  23.9757
 21.6487  23.9496
 21.7293  24.0646
 21.8098  24.4605
 21.8903  24.3658
 21.9708  24.2336
 22.0512  24.1892
 22.1318  25.5018
 22.2123  24.4195
 22.2928  24.5713
 22.3733  24.5345
 22.4538  24.6547
 22.5343  24.6475
 22.6148  24.8431
 22.6953  25.2033
 22.7758  25.3412
 22.8563  25.4037
 22.9367  26.0089
 22.9943  26.2843

File: Data_0068.chi
F:\20151113_APS_34IDE\\Brian\Particle1\OCV\Data_0068.tif
2-Theta Angle (Degrees)
Intensity
       2000
 0.07475  0.0000000E+00
 0.15525  0.0000000E+00
 0.23575  0.0000000E+00
 0.31625  0.0000000E+00
 0.39675  0.0000000E+00
 0.47725  0.0000000E+00
 0.55775  0.0000000E+00
 0.63825  0.0000000E+00
 0.71875  0.0000000E+00
 0.79925  0.0000000E+00
 0.87975  0.0000000E+00
 0.96025  0.0000000E+00
 1.04075  0.0000000E+00
 1.12125  0.0000000E+00
 1.20175  0.0000000E+00
 1.28225  0.0000000E+00
 1.36275  0.0000000E+00
 1.44325  0.0000000E+00
 1.52375  0.0000000E+00
 1.60425  0.0000000E+00
 1.68475  0.0000000E+00
 1.76525  0.0000000E+00
 1.84575  0.0000000E+00
 1.92625  0.0000000E+00
 2.00675  0.0000000E+00
 2.08725  0.0000000E+00
 2.16775  0.0000000E+00
 2.24825  0.0000000E+00
 2.32875  0.0000000E+00
 2.40925  0.0000000E+00
 2.48975  0.0000000E+00
 2.57025  0.0000000E+00
 2.65075  0.0000000E+00
 2.73125  0.0000000E+00
 2.81175  0.0000000E+00
 2.89225  32.885
 2.97275  36.0436
 3.05325  34.1396
 3.13375  35.6218
 3.21425  35.1885
 3.29475  34.6017
 3.37525  34.9412
 3.45575  34.5047
 3.53625  33.7684
 3.61675  32.9147
 3.69725  33.062
 3.77775  32.5912
 3.85825  32.4712
 3.93875  32.7906
 4.01925  32.3011
 4.09975  32.8945
 4.18025  32.0834
 4.26075  32.106
 4.34125  32.1238
 4.42175  32.4344
 4.50225  32.4093
 4.58275  32.524
 4.66325  32.8467
 4.74375  32.6375
 4.82425  32.6318
 4.90475  32.6452
 4.98525  32.6284
 5.06575  33.2854
 5.14625  33.5295
 5.22675  33.9679
 5.30725  33.9629
 5.38775  34.3417
 5.46825  34.5002
 5.54875  34.4675
 5.62925  35.0811
 5.70975  35.4772
 5.79025  36.3445
 5.87075  38.0368
 5.95125  101.756
 6.03175  47.8819
 6.11225  38.1604
 6.19275  37.307
 6.27325  37.2264
 6.35375  38.0473
 6.43425  38.499
 6.51475  38.6081
 6.59525  39.0735
 6.67575  39.6768
 6.75625  40.749
 6.83675  41.1874
 6.91725  41.6839
 6.99775  41.9228
 7.07825  42.4034
 7.15875  42.8482
 7.23925  43.0293
 7.31975  43.3711
 7.40025  43.9971
 7.48075  43.7056
 7.56125  44.1258
 7.64175  43.9658
 7.72225  44.1474
 7.80275  43.8998
 7.88325  43.2603
 7.96375  43.0948
 8.04425  42.9626
 8.12475  42.1023
 8.20525  41.4634
 8.28575  40.4669
 8.36625  39.573
 8.44675  38.2285
 8.52725  37.4578
 8.60775  35.7422
 8.68825  34.6327
 8.76875  33.7038
 8.84925  32.502
 8.92975  31.5907
 9.01025  30.4966
 9.09075  29.4869
 9.17125  28.5847
 9.25175  28.1293
 9.33225  27.2537
 9.41275  26.8164
 9.49325  26.407
 9.57375  25.897
 9.65425  25.5578
 9.73475  25.0612
 9.81525  24.8525
 9.89575  24.5251
 9.97625  24.279
 10.0567  24.2431
 10.1373  23.9296
 10.2178  23.7254
 10.2982  23.6924
 10.3788  23.2968
 10.4593  23.1468
 10.5397  23.1536
 10.6203  23.0336
 10.7007  22.9663
 10.7813  22.7366
 10.8618  22.6922
 10.9422  22.761
 11.0228  22.7336
 11.1033  22.5896
 11.1837  22.4678
 11.2643  22.564
 11.3447  22.5627
 11.4253  22.868
 11.5058  23.6371
 11.5862  39.5175
 11.6668  25.158
 11.7473  22.8196
 11.8277  22.7069
 11.9083  22.7706
 11.9887  24.5315
 12.0693  24.0039
 12.1498  24.5697
 12.2302  22.787
 12.3108  22.6502
 12.3913  22.593
 12.4718  22.6444
 12.5523  22.6572
 12.6328  22.8702
 12.7133  22.8209
 12.7938  23.2153
 12.8742  23.4999
 12.9548  23.7539
 13.0353  24.1624
 13.1158  24.7498
 13.1963  25.4629
 13.2768  26.5008
 13.3573  27.4858
 13.4378  28.503
 13.5183  29.1974
 13.5988  29.7836
 13.6793  29.836
 13.7598  29.6452
 13.8403  29.6687
 13.9208  36.2338
 14.0013  47.507
 14.0818  28.5166
 14.1623  27.4547
 14.2428  26.725
 14.3233  26.1563
 14.4038  25.96
 14.4843  25.6068
 14.5648  25.5525
 14.6453  25.2713
 14.7258  25.1759
 14.8063  25.0407
 14.8868  24.9104
 14.9673  24.8645
 15.0478  24.723
 15.1283  25.1071
 15.2088  27.997
 15.2892  24.8829
 15.3698  24.6174
 15.4503  24.4638
 15.5308  24.553
 15.6113  24.4422
 15.6918  24.643
 15.7723  24.7419
 15.8528  24.611
 15.9332  24.6582
 16.0138  24.6545
 16.0943  24.6735
 16.1748  24.9849
 16.2553  27.6136
 16.3358  25.1244
 16.4163  24.9134
 16.4967  24.7148
 16.5773  24.6494
 16.6578  24.5139
 16.7383  24.4934
 16.8188  24.5507
 16.8992  24.437
 16.9798  24.3466
 17.0603  24.2182
 17.1408  24.2808
 17.2213  24.127
 17.3017  24.057
 17.3823  24.0539
 17.4628  23.9841
 17.5433  23.9548
 17.6238  23.9276
 17.7042  24.006
 17.7847  23.8477
 17.8653  23.9405
 17.9458  23.9762
 18.0263  25.5289
 18.1068  29.811
 18.1872  24.4564
 18.2678  23.7888
 18.3483  23.8341
 18.4288  23.6601
 18.5093  23.6606
 18.5897  23.6618
 18.6703  23.4195
 18.7508  23.5764
 18.8313  23.4982
 18.9118  23.4671
 18.9922  23.4288
 19.0727  23.5338
 19.1533  23.5722
 19.2338  23.4145
 19.3143  23.7001
 19.3948  23.6279
 19.4752  23.6852
 19.5558  23.8393
 19.6363  24.2887
 19.7168  26.341
 19.7973  26.0436
 19.8777  30.7148
 19.9582  24.4741
 20.0388  23.959
 20.1193  23.999
 20.1998  23.7473
 20.2803  23.7591
 20.3607  23.8614
 20.4413  23.9137
 20.5218  23.8097
 20.6023  24.013
 20.6828  24.4646
 20.7632  27.7386
 20.8438  24.493
 20.9243  24.0089
 21.0048  23.9869
 21.0853  24.1128
 21.1658  23.9245
 21.2462  23.9671
 21.3268  23.8749
 21.4073  23.9132
 21.4878  24.046
 21.5683  24.0532
 21.6487  24.264
 21.7293  24.1962
 21.8098  24.1728
 21.8903  24.2823
 21.9708  24.2724
 22.0512  24.3293
 22.1318  24.4509
 22.2123  24.3861
 22.2928  24.4234
 22.3733  24.5975
 22.4538  24.6695
 22.5343  24.7946
 22.6148  24.9403
 22.6953  25.1531
 22.7758  25.3449
 22.8563  25.5661
 22.9367  26.0018
 22.9943  26.2947