Folder: scimap-tests/test-data-xrd/xrd-map-34-ID-E (part 12)

File: Data_0048.chi
F:\20151113_APS_34IDE\\Brian\Particle1\OCV\Data_0048.tif
2-Theta Angle (Degrees)
Intensity
       2000
 0.07475  0.0000000E+00
 0.15525  0.0000000E+00
 0.23575  0.0000000E+00
 0.31625  0.0000000E+00
 0.39675  0.0000000E+00
 0.47725  0.0000000E+00
 0.55775  0.0000000E+00
 0.63825  0.0000000E+00
 0.71875  0.0000000E+00
 0.79925  0.0000000E+00
 0.87975  0.0000000E+00
 0.96025  0.0000000E+00
 1.04075  0.0000000E+00
 1.12125  0.0000000E+00
 1.20175  0.0000000E+00
 1.28225  0.0000000E+00
 1.36275  0.0000000E+00
 1.44325  0.0000000E+00
 1.52375  0.0000000E+00
 1.60425  0.0000000E+00
 1.68475  0.0000000E+00
 1.76525  0.0000000E+00
 1.84575  0.0000000E+00
 1.92625  0.0000000E+00
 2.00675  0.0000000E+00
 2.08725  0.0000000E+00
 2.16775  0.0000000E+00
 2.24825  0.0000000E+00
 2.32875  0.0000000E+00
 2.40925  0.0000000E+00
 2.48975  0.0000000E+00
 2.57025  0.0000000E+00
 2.65075  0.0000000E+00
 2.73125  0.0000000E+00
 2.81175  0.0000000E+00
 2.89225  35.1501
 2.97275  35.2664
 3.05325  35.6002
 3.13375  35.2966
 3.21425  35.1116
 3.29475  34.7114
 3.37525  34.7889
 3.45575  33.5819
 3.53625  33.1577
 3.61675  32.2512
 3.69725  32.7598
 3.77775  32.9852
 3.85825  31.9772
 3.93875  32.7075
 4.01925  32.4484
 4.09975  32.2782
 4.18025  32.27
 4.26075  32.0805
 4.34125  31.9281
 4.42175  33.4494
 4.50225  32.5754
 4.58275  32.5578
 4.66325  32.8864
 4.74375  32.3636
 4.82425  32.8326
 4.90475  32.4578
 4.98525  32.4232
 5.06575  33.4411
 5.14625  33.6755
 5.22675  33.8178
 5.30725  34.2887
 5.38775  34.4069
 5.46825  34.9651
 5.54875  34.6481
 5.62925  35.2082
 5.70975  35.3907
 5.79025  35.9654
 5.87075  37.1229
 5.95125  54.6085
 6.03175  50.6697
 6.11225  37.6574
 6.19275  37.3132
 6.27325  37.3249
 6.35375  37.7802
 6.43425  38.0984
 6.51475  39.1064
 6.59525  39.6443
 6.67575  40.16
 6.75625  40.6885
 6.83675  41.5663
 6.91725  41.6277
 6.99775  42.2634
 7.07825  42.7714
 7.15875  43.1301
 7.23925  43.4142
 7.31975  43.7733
 7.40025  45.7719
 7.48075  44.3602
 7.56125  44.3206
 7.64175  44.1677
 7.72225  44.0055
 7.80275  44.0141
 7.88325  43.8123
 7.96375  43.5798
 8.04425  43.3128
 8.12475  42.7636
 8.20525  41.7073
 8.28575  40.9655
 8.36625  39.8982
 8.44675  38.6157
 8.52725  37.5873
 8.60775  36.1851
 8.68825  35.1575
 8.76875  33.6349
 8.84925  32.8729
 8.92975  31.637
 9.01025  30.6968
 9.09075  29.8228
 9.17125  29.1894
 9.25175  28.2746
 9.33225  27.4595
 9.41275  27.0343
 9.49325  26.7544
 9.57375  26.0777
 9.65425  25.902
 9.73475  25.4737
 9.81525  25.0715
 9.89575  24.675
 9.97625  24.3849
 10.0567  24.2001
 10.1373  23.9729
 10.2178  23.9448
 10.2982  23.6283
 10.3788  23.5845
 10.4593  23.2809
 10.5397  23.3529
 10.6203  23.1361
 10.7007  23.0394
 10.7813  22.9578
 10.8618  22.7557
 10.9422  22.7214
 11.0228  22.7262
 11.1033  22.729
 11.1837  22.7742
 11.2643  22.6613
 11.3447  22.8315
 11.4253  23.1612
 11.5058  23.3893
 11.5862  29.1984
 11.6668  23.9286
 11.7473  22.7196
 11.8277  22.6379
 11.9083  22.8628
 11.9887  25.3473
 12.0693  24.5324
 12.1498  25.1
 12.2302  22.8255
 12.3108  22.7682
 12.3913  22.7305
 12.4718  22.7119
 12.5523  22.9284
 12.6328  22.9035
 12.7133  23.0027
 12.7938  23.2893
 12.8742  23.7017
 12.9548  24.1258
 13.0353  24.3661
 13.1158  25.1225
 13.1963  25.8138
 13.2768  26.8254
 13.3573  27.9445
 13.4378  28.6555
 13.5183  29.6037
 13.5988  29.9775
 13.6793  29.9905
 13.7598  30.1083
 13.8403  30.2676
 13.9208  43.9856
 14.0013  43.0495
 14.0818  28.8311
 14.1623  27.5853
 14.2428  26.8831
 14.3233  26.4507
 14.4038  26.2665
 14.4843  25.8211
 14.5648  25.8611
 14.6453  25.517
 14.7258  25.3839
 14.8063  25.1618
 14.8868  25.1924
 14.9673  25.0381
 15.0478  25.0948
 15.1283  26.005
 15.2088  27.954
 15.2892  25.3582
 15.3698  24.9067
 15.4503  24.7133
 15.5308  24.6432
 15.6113  24.5967
 15.6918  24.7325
 15.7723  24.7463
 15.8528  24.8445
 15.9332  24.8259
 16.0138  24.8804
 16.0943  24.9862
 16.1748  25.1939
 16.2553  26.416
 16.3358  25.1153
 16.4163  24.8543
 16.4967  24.7933
 16.5773  24.7898
 16.6578  24.665
 16.7383  24.7537
 16.8188  24.5485
 16.8992  24.5682
 16.9798  24.4326
 17.0603  24.3872
 17.1408  24.3316
 17.2213  24.3534
 17.3017  24.2088
 17.3823  24.2115
 17.4628  24.1661
 17.5433  24.1189
 17.6238  24.2144
 17.7042  24.0484
 17.7847  24.0388
 17.8653  24.1062
 17.9458  24.122
 18.0263  26.1604
 18.1068  29.2366
 18.1872  25.3057
 18.2678  23.989
 18.3483  23.8006
 18.4288  23.8732
 18.5093  23.7678
 18.5897  23.8234
 18.6703  23.7808
 18.7508  23.7861
 18.8313  23.7966
 18.9118  23.5768
 18.9922  23.7506
 19.0727  23.7202
 19.1533  23.9292
 19.2338  23.7684
 19.3143  23.9156
 19.3948  23.9672
 19.4752  24.0874
 19.5558  24.2614
 19.6363  25.6107
 19.7168  37.0329
 19.7973  29.7115
 19.8777  35.959
 19.9582  25.2737
 20.0388  24.3572
 20.1193  24.1982
 20.1998  23.9184
 20.2803  23.9717
 20.3607  24.014
 20.4413  23.9447
 20.5218  23.977
 20.6023  24.0691
 20.6828  24.3593
 20.7632  26.2753
 20.8438  24.5197
 20.9243  24.2136
 21.0048  24.0736
 21.0853  24.1274
 21.1658  24.0123
 21.2462  24.0549
 21.3268  24.0772
 21.4073  24.093
 21.4878  24.2182
 21.5683  24.2351
 21.6487  24.2559
 21.7293  24.4161
 21.8098  24.387
 21.8903  24.3898
 21.9708  24.5173
 22.0512  24.4033
 22.1318  24.529
 22.2123  24.6267
 22.2928  24.636
 22.3733  24.7175
 22.4538  24.8758
 22.5343  24.9968
 22.6148  25.0995
 22.6953  25.3901
 22.7758  25.4186
 22.8563  25.7066
 22.9367  26.256
 22.9943  26.6391

File: Data_0050.chi
F:\20151113_APS_34IDE\\Brian\Particle1\OCV\Data_0050.tif
2-Theta Angle (Degrees)
Intensity
       2000
 0.07475  0.0000000E+00
 0.15525  0.0000000E+00
 0.23575  0.0000000E+00
 0.31625  0.0000000E+00
 0.39675  0.0000000E+00
 0.47725  0.0000000E+00
 0.55775  0.0000000E+00
 0.63825  0.0000000E+00
 0.71875  0.0000000E+00
 0.79925  0.0000000E+00
 0.87975  0.0000000E+00
 0.96025  0.0000000E+00
 1.04075  0.0000000E+00
 1.12125  0.0000000E+00
 1.20175  0.0000000E+00
 1.28225  0.0000000E+00
 1.36275  0.0000000E+00
 1.44325  0.0000000E+00
 1.52375  0.0000000E+00
 1.60425  0.0000000E+00
 1.68475  0.0000000E+00
 1.76525  0.0000000E+00
 1.84575  0.0000000E+00
 1.92625  0.0000000E+00
 2.00675  0.0000000E+00
 2.08725  0.0000000E+00
 2.16775  0.0000000E+00
 2.24825  0.0000000E+00
 2.32875  0.0000000E+00
 2.40925  0.0000000E+00
 2.48975  0.0000000E+00
 2.57025  0.0000000E+00
 2.65075  0.0000000E+00
 2.73125  0.0000000E+00
 2.81175  0.0000000E+00
 2.89225  34.8313
 2.97275  36.6903
 3.05325  35.687
 3.13375  36.7379
 3.21425  35.1041
 3.29475  35.4455
 3.37525  34.2241
 3.45575  34.2463
 3.53625  33.9304
 3.61675  32.781
 3.69725  33.1227
 3.77775  32.6004
 3.85825  33.3452
 3.93875  32.7507
 4.01925  33.0974
 4.09975  32.8081
 4.18025  32.0959
 4.26075  32.242
 4.34125  31.9837
 4.42175  32.4883
 4.50225  32.5364
 4.58275  32.665
 4.66325  32.6702
 4.74375  32.9785
 4.82425  32.6424
 4.90475  32.9261
 4.98525  33.0848
 5.06575  33.3574
 5.14625  33.6649
 5.22675  33.823
 5.30725  34.2522
 5.38775  34.251
 5.46825  34.9923
 5.54875  35.2507
 5.62925  35.4612
 5.70975  35.7427
 5.79025  35.985
 5.87075  37.1303
 5.95125  54.1826
 6.03175  44.8732
 6.11225  37.6131
 6.19275  36.9803
 6.27325  37.7193
 6.35375  38.388
 6.43425  38.5484
 6.51475  39.3914
 6.59525  39.6788
 6.67575  40.1458
 6.75625  40.5465
 6.83675  41.4078
 6.91725  41.7043
 6.99775  42.297
 7.07825  42.6104
 7.15875  43.25
 7.23925  43.6048
 7.31975  43.6034
 7.40025  44.0014
 7.48075  44.2047
 7.56125  44.3201
 7.64175  44.1622
 7.72225  44.3854
 7.80275  44.2761
 7.88325  43.9238
 7.96375  43.8837
 8.04425  43.1717
 8.12475  42.9449
 8.20525  42.1354
 8.28575  41.1364
 8.36625  40.0315
 8.44675  38.757
 8.52725  37.745
 8.60775  36.3576
 8.68825  35.274
 8.76875  34.0546
 8.84925  32.8925
 8.92975  31.9516
 9.01025  30.6569
 9.09075  29.7995
 9.17125  28.9888
 9.25175  28.1947
 9.33225  27.5993
 9.41275  26.9573
 9.49325  26.5976
 9.57375  26.1452
 9.65425  25.7431
 9.73475  25.3071
 9.81525  25.04
 9.89575  24.753
 9.97625  24.5991
 10.0567  24.242
 10.1373  24.0327
 10.2178  23.8804
 10.2982  23.7412
 10.3788  23.6334
 10.4593  23.5006
 10.5397  23.3645
 10.6203  23.2506
 10.7007  22.9836
 10.7813  22.9138
 10.8618  22.8736
 10.9422  22.8815
 11.0228  22.6323
 11.1033  22.5447
 11.1837  22.6575
 11.2643  22.3549
 11.3447  22.5357
 11.4253  23.1535
 11.5058  23.1192
 11.5862  28.3146
 11.6668  24.1085
 11.7473  22.7817
 11.8277  22.8411
 11.9083  23.2425
 11.9887  28.1532
 12.0693  26.225
 12.1498  26.6973
 12.2302  23.0329
 12.3108  22.8096
 12.3913  22.6554
 12.4718  22.7639
 12.5523  22.8179
 12.6328  23.0365
 12.7133  23.0269
 12.7938  23.2597
 12.8742  23.6911
 12.9548  23.9889
 13.0353  24.2762
 13.1158  25.1409
 13.1963  25.7368
 13.2768  26.9751
 13.3573  27.8225
 13.4378  28.6059
 13.5183  29.5161
 13.5988  29.9892
 13.6793  29.9948
 13.7598  29.8593
 13.8403  30.3044
 13.9208  41.2596
 14.0013  43.9292
 14.0818  28.6272
 14.1623  27.2749
 14.2428  26.8162
 14.3233  26.46
 14.4038  26.1216
 14.4843  25.7805
 14.5648  25.7664
 14.6453  25.5997
 14.7258  25.2614
 14.8063  25.2471
 14.8868  24.9831
 14.9673  25.0175
 15.0478  25.0709
 15.1283  25.4591
 15.2088  27.0819
 15.2892  24.9816
 15.3698  24.8155
 15.4503  24.7744
 15.5308  24.7589
 15.6113  24.6142
 15.6918  24.6794
 15.7723  24.7014
 15.8528  24.7253
 15.9332  24.7883
 16.0138  24.9099
 16.0943  24.8356
 16.1748  25.0197
 16.2553  26.0654
 16.3358  25.1421
 16.4163  24.9221
 16.4967  24.9004
 16.5773  24.677
 16.6578  24.7598
 16.7383  24.6518
 16.8188  24.6422
 16.8992  24.5864
 16.9798  24.5303
 17.0603  24.3827
 17.1408  24.5683
 17.2213  24.4219
 17.3017  24.0953
 17.3823  24.1801
 17.4628  24.1148
 17.5433  24.0906
 17.6238  24.014
 17.7042  24.0326
 17.7847  24.013
 17.8653  23.8571
 17.9458  24.1168
 18.0263  24.9415
 18.1068  26.0683
 18.1872  24.2058
 18.2678  23.5954
 18.3483  23.6828
 18.4288  23.8131
 18.5093  23.6539
 18.5897  23.8328
 18.6703  23.651
 18.7508  23.7267
 18.8313  23.6665
 18.9118  23.772
 18.9922  23.6448
 19.0727  23.6909
 19.1533  23.6273
 19.2338  23.6787
 19.3143  23.6997
 19.3948  23.7331
 19.4752  23.8781
 19.5558  23.9977
 19.6363  24.417
 19.7168  27.8374
 19.7973  25.8251
 19.8777  27.9893
 19.9582  24.3549
 20.0388  23.9381
 20.1193  23.8821
 20.1998  23.9687
 20.2803  23.9877
 20.3607  23.9809
 20.4413  23.9756
 20.5218  23.9073
 20.6023  24.164
 20.6828  24.4431
 20.7632  27.6624
 20.8438  25.1489
 20.9243  24.1977
 21.0048  24.1482
 21.0853  24.0485
 21.1658  23.8813
 21.2462  24.0417
 21.3268  24.0343
 21.4073  23.9395
 21.4878  24.1245
 21.5683  24.1783
 21.6487  24.2938
 21.7293  24.3955
 21.8098  24.348
 21.8903  24.2502
 21.9708  24.392
 22.0512  24.5179
 22.1318  24.5517
 22.2123  24.6199
 22.2928  24.6632
 22.3733  24.7136
 22.4538  24.8275
 22.5343  24.9554
 22.6148  24.9992
 22.6953  25.3561
 22.7758  25.4125
 22.8563  25.6687
 22.9367  26.2007
 22.9943  26.5888

File: Data_0051.chi
F:\20151113_APS_34IDE\\Brian\Particle1\OCV\Data_0051.tif
2-Theta Angle (Degrees)
Intensity
       2000
 0.07475  0.0000000E+00
 0.15525  0.0000000E+00
 0.23575  0.0000000E+00
 0.31625  0.0000000E+00
 0.39675  0.0000000E+00
 0.47725  0.0000000E+00
 0.55775  0.0000000E+00
 0.63825  0.0000000E+00
 0.71875  0.0000000E+00
 0.79925  0.0000000E+00
 0.87975  0.0000000E+00
 0.96025  0.0000000E+00
 1.04075  0.0000000E+00
 1.12125  0.0000000E+00
 1.20175  0.0000000E+00
 1.28225  0.0000000E+00
 1.36275  0.0000000E+00
 1.44325  0.0000000E+00
 1.52375  0.0000000E+00
 1.60425  0.0000000E+00
 1.68475  0.0000000E+00
 1.76525  0.0000000E+00
 1.84575  0.0000000E+00
 1.92625  0.0000000E+00
 2.00675  0.0000000E+00
 2.08725  0.0000000E+00
 2.16775  0.0000000E+00
 2.24825  0.0000000E+00
 2.32875  0.0000000E+00
 2.40925  0.0000000E+00
 2.48975  0.0000000E+00
 2.57025  0.0000000E+00
 2.65075  0.0000000E+00
 2.73125  0.0000000E+00
 2.81175  0.0000000E+00
 2.89225  33.9565
 2.97275  35.1768
 3.05325  36.4918
 3.13375  35.1707
 3.21425  34.997
 3.29475  34.2568
 3.37525  34.6129
 3.45575  33.9298
 3.53625  33.3612
 3.61675  32.6344
 3.69725  32.4884
 3.77775  33.0242
 3.85825  32.4781
 3.93875  32.0974
 4.01925  32.2914
 4.09975  32.4108
 4.18025  31.8413
 4.26075  32.0567
 4.34125  32.3874
 4.42175  32.497
 4.50225  32.3667
 4.58275  32.3404
 4.66325  32.6952
 4.74375  32.6182
 4.82425  32.2468
 4.90475  32.5411
 4.98525  32.5296
 5.06575  33.1228
 5.14625  33.4111
 5.22675  33.8312
 5.30725  33.8643
 5.38775  34.6159
 5.46825  34.7461
 5.54875  34.7926
 5.62925  35.1437
 5.70975  35.6218
 5.79025  35.9138
 5.87075  36.6919
 5.95125  47.5207
 6.03175  45.4758
 6.11225  37.2629
 6.19275  36.7501
 6.27325  37.5676
 6.35375  37.5286
 6.43425  38.4747
 6.51475  38.941
 6.59525  39.4006
 6.67575  39.8085
 6.75625  40.4118
 6.83675  41.3063
 6.91725  42.0945
 6.99775  41.9612
 7.07825  42.6153
 7.15875  43.1685
 7.23925  43.4958
 7.31975  43.5938
 7.40025  44.1021
 7.48075  44.3316
 7.56125  44.4163
 7.64175  44.3939
 7.72225  44.035
 7.80275  43.8355
 7.88325  43.5893
 7.96375  43.4135
 8.04425  42.9002
 8.12475  42.4576
 8.20525  41.7198
 8.28575  40.9071
 8.36625  39.9505
 8.44675  38.7493
 8.52725  37.5967
 8.60775  36.0256
 8.68825  35.0629
 8.76875  33.5808
 8.84925  32.5015
 8.92975  31.5661
 9.01025  30.5361
 9.09075  29.6719
 9.17125  28.8714
 9.25175  28.0035
 9.33225  27.5315
 9.41275  26.9234
 9.49325  26.4359
 9.57375  25.8612
 9.65425  25.6565
 9.73475  25.1023
 9.81525  24.8472
 9.89575  24.6377
 9.97625  24.344
 10.0567  24.0622
 10.1373  23.9464
 10.2178  23.66
 10.2982  23.4985
 10.3788  23.3907
 10.4593  23.3949
 10.5397  23.1924
 10.6203  23.156
 10.7007  23.1993
 10.7813  22.8675
 10.8618  22.8483
 10.9422  22.8405
 11.0228  22.6346
 11.1033  22.64
 11.1837  22.547
 11.2643  22.345
 11.3447  22.5868
 11.4253  23.0999
 11.5058  23.1398
 11.5862  29.8266
 11.6668  23.7139
 11.7473  22.6118
 11.8277  22.658
 11.9083  22.6622
 11.9887  24.6708
 12.0693  25.2697
 12.1498  24.3499
 12.2302  22.6764
 12.3108  22.7152
 12.3913  22.7054
 12.4718  22.7718
 12.5523  22.8652
 12.6328  22.9312
 12.7133  22.8774
 12.7938  23.0487
 12.8742  23.3538
 12.9548  23.6628
 13.0353  24.0388
 13.1158  24.9284
 13.1963  25.5744
 13.2768  26.6385
 13.3573  27.6661
 13.4378  28.5157
 13.5183  29.2821
 13.5988  29.8175
 13.6793  29.9389
 13.7598  29.6778
 13.8403  29.7698
 13.9208  39.7347
 14.0013  35.5186
 14.0818  28.2049
 14.1623  27.1797
 14.2428  26.7155
 14.3233  26.294
 14.4038  26.0914
 14.4843  25.6123
 14.5648  25.5821
 14.6453  25.3008
 14.7258  25.1911
 14.8063  24.9673
 14.8868  24.9193
 14.9673  24.8006
 15.0478  24.9402
 15.1283  25.4924
 15.2088  28.6874
 15.2892  25.1577
 15.3698  24.603
 15.4503  24.4971
 15.5308  24.523
 15.6113  24.4901
 15.6918  24.7706
 15.7723  24.6314
 15.8528  24.5461
 15.9332  24.9381
 16.0138  24.7391
 16.0943  24.5587
 16.1748  24.6789
 16.2553  25.6859
 16.3358  25.0985
 16.4163  24.9188
 16.4967  24.7054
 16.5773  24.6502
 16.6578  24.5662
 16.7383  24.6493
 16.8188  24.4094
 16.8992  24.4017
 16.9798  24.3769
 17.0603  24.1874
 17.1408  24.145
 17.2213  24.1043
 17.3017  24.0967
 17.3823  24.0829
 17.4628  23.881
 17.5433  23.9158
 17.6238  23.879
 17.7042  23.8694
 17.7847  23.7063
 17.8653  23.7656
 17.9458  23.7726
 18.0263  24.2376
 18.1068  25.2532
 18.1872  23.9816
 18.2678  23.7036
 18.3483  23.5853
 18.4288  23.6605
 18.5093  23.6618
 18.5897  23.5851
 18.6703  23.5395
 18.7508  23.5813
 18.8313  23.5021
 18.9118  23.6263
 18.9922  23.5232
 19.0727  23.5701
 19.1533  23.4716
 19.2338  23.5162
 19.3143  23.6344
 19.3948  23.7326
 19.4752  23.8068
 19.5558  23.9114
 19.6363  25.0462
 19.7168  29.6442
 19.7973  25.3589
 19.8777  28.8359
 19.9582  24.3578
 20.0388  23.8899
 20.1193  23.8624
 20.1998  23.7721
 20.2803  23.7062
 20.3607  23.8177
 20.4413  23.9049
 20.5218  23.8848
 20.6023  23.9813
 20.6828  24.619
 20.7632  28.2175
 20.8438  24.6548
 20.9243  24.2144
 21.0048  24.0499
 21.0853  24.0571
 21.1658  23.9144
 21.2462  23.9509
 21.3268  23.871
 21.4073  23.9194
 21.4878  24.0109
 21.5683  24.0388
 21.6487  24.1024
 21.7293  24.0898
 21.8098  24.2528
 21.8903  24.2035
 21.9708  24.2478
 22.0512  24.2725
 22.1318  24.3432
 22.2123  24.3336
 22.2928  24.4683
 22.3733  24.5709
 22.4538  24.6674
 22.5343  25.0058
 22.6148  24.9786
 22.6953  25.0952
 22.7758  25.2919
 22.8563  25.5844
 22.9367  26.2361
 22.9943  26.8071

File: Data_0052.chi
F:\20151113_APS_34IDE\\Brian\Particle1\OCV\Data_0052.tif
2-Theta Angle (Degrees)
Intensity
       2000
 0.07475  0.0000000E+00
 0.15525  0.0000000E+00
 0.23575  0.0000000E+00
 0.31625  0.0000000E+00
 0.39675  0.0000000E+00
 0.47725  0.0000000E+00
 0.55775  0.0000000E+00
 0.63825  0.0000000E+00
 0.71875  0.0000000E+00
 0.79925  0.0000000E+00
 0.87975  0.0000000E+00
 0.96025  0.0000000E+00
 1.04075  0.0000000E+00
 1.12125  0.0000000E+00
 1.20175  0.0000000E+00
 1.28225  0.0000000E+00
 1.36275  0.0000000E+00
 1.44325  0.0000000E+00
 1.52375  0.0000000E+00
 1.60425  0.0000000E+00
 1.68475  0.0000000E+00
 1.76525  0.0000000E+00
 1.84575  0.0000000E+00
 1.92625  0.0000000E+00
 2.00675  0.0000000E+00
 2.08725  0.0000000E+00
 2.16775  0.0000000E+00
 2.24825  0.0000000E+00
 2.32875  0.0000000E+00
 2.40925  0.0000000E+00
 2.48975  0.0000000E+00
 2.57025  0.0000000E+00
 2.65075  0.0000000E+00
 2.73125  0.0000000E+00
 2.81175  0.0000000E+00
 2.89225  36.4492
 2.97275  35.4887
 3.05325  36.1945
 3.13375  35.373
 3.21425  35.3731
 3.29475  34.3899
 3.37525  34.7497
 3.45575  34.5277
 3.53625  33.8766
 3.61675  33.6579
 3.69725  32.7668
 3.77775  32.9076
 3.85825  32.5148
 3.93875  32.59
 4.01925  33.2319
 4.09975  33.0783
 4.18025  32.2405
 4.26075  32.6263
 4.34125  32.4212
 4.42175  32.527
 4.50225  32.5401
 4.58275  32.8691
 4.66325  33.1796
 4.74375  32.2479
 4.82425  32.9034
 4.90475  32.8427
 4.98525  33.0371
 5.06575  33.3585
 5.14625  33.337
 5.22675  34.2093
 5.30725  34.2947
 5.38775  34.4993
 5.46825  34.6377
 5.54875  35.0252
 5.62925  35.2544
 5.70975  35.9172
 5.79025  36.1717
 5.87075  37.2017
 5.95125  48.1223
 6.03175  52.7108
 6.11225  38.1289
 6.19275  37.4602
 6.27325  37.6319
 6.35375  38.4457
 6.43425  38.6342
 6.51475  39.4562
 6.59525  39.5086
 6.67575  40.6424
 6.75625  40.907
 6.83675  41.59
 6.91725  42.1042
 6.99775  42.3505
 7.07825  42.7346
 7.15875  43.2611
 7.23925  43.6305
 7.31975  43.5993
 7.40025  44.1931
 7.48075  44.492
 7.56125  44.2849
 7.64175  44.7112
 7.72225  44.5193
 7.80275  44.4152
 7.88325  44.2028
 7.96375  43.8897
 8.04425  43.6171
 8.12475  42.9461
 8.20525  41.9684
 8.28575  41.1689
 8.36625  40.3435
 8.44675  38.7844
 8.52725  37.8355
 8.60775  36.5554
 8.68825  35.3769
 8.76875  34.2475
 8.84925  33.1283
 8.92975  32.0644
 9.01025  31.16
 9.09075  30.2816
 9.17125  29.4701
 9.25175  28.6151
 9.33225  27.8053
 9.41275  27.1097
 9.49325  26.8408
 9.57375  26.0523
 9.65425  25.7655
 9.73475  25.6338
 9.81525  25.2466
 9.89575  24.9048
 9.97625  24.8084
 10.0567  24.4635
 10.1373  24.3157
 10.2178  24.0799
 10.2982  23.8719
 10.3788  23.6354
 10.4593  23.5746
 10.5397  23.3453
 10.6203  23.393
 10.7007  23.2375
 10.7813  23.0785
 10.8618  23.0544
 10.9422  22.803
 11.0228  22.7806
 11.1033  22.7424
 11.1837  22.6243
 11.2643  22.7649
 11.3447  23.0141
 11.4253  23.3258
 11.5058  23.91
 11.5862  36.1456
 11.6668  24.8287
 11.7473  23.014
 11.8277  22.7589
 11.9083  22.7632
 11.9887  24.7086
 12.0693  24.9996
 12.1498  23.8907
 12.2302  22.8209
 12.3108  22.6872
 12.3913  22.9423
 12.4718  23.0292
 12.5523  22.9943
 12.6328  22.8861
 12.7133  23.223
 12.7938  23.382
 12.8742  23.6355
 12.9548  23.9382
 13.0353  24.377
 13.1158  25.0532
 13.1963  25.853
 13.2768  26.9356
 13.3573  27.897
 13.4378  28.6273
 13.5183  29.5127
 13.5988  29.9911
 13.6793  30.0102
 13.7598  29.9252
 13.8403  30.2346
 13.9208  41.2357
 14.0013  36.2014
 14.0818  28.6468
 14.1623  27.5374
 14.2428  26.9758
 14.3233  26.4285
 14.4038  26.2475
 14.4843  25.9494
 14.5648  25.8522
 14.6453  25.5012
 14.7258  25.4249
 14.8063  25.292
 14.8868  25.0416
 14.9673  25.0928
 15.0478  25.0504
 15.1283  25.3731
 15.2088  26.909
 15.2892  24.9495
 15.3698  24.8623
 15.4503  24.7272
 15.5308  24.8311
 15.6113  24.7781
 15.6918  24.7885
 15.7723  24.812
 15.8528  24.804
 15.9332  24.849
 16.0138  24.9269
 16.0943  24.8752
 16.1748  25.1329
 16.2553  25.6619
 16.3358  25.2731
 16.4163  24.885
 16.4967  24.9405
 16.5773  24.9235
 16.6578  24.7582
 16.7383  24.7191
 16.8188  24.4972
 16.8992  24.5048
 16.9798  24.4766
 17.0603  24.3402
 17.1408  24.3924
 17.2213  24.4145
 17.3017  24.2764
 17.3823  24.1677
 17.4628  24.2028
 17.5433  24.1309
 17.6238  24.0886
 17.7042  24.1172
 17.7847  23.997
 17.8653  24.0111
 17.9458  24.0905
 18.0263  24.566
 18.1068  24.9613
 18.1872  24.1574
 18.2678  23.7461
 18.3483  23.9039
 18.4288  23.7933
 18.5093  23.7419
 18.5897  23.766
 18.6703  23.7181
 18.7508  23.5895
 18.8313  23.5741
 18.9118  23.7398
 18.9922  23.699
 19.0727  23.7999
 19.1533  23.8412
 19.2338  23.7539
 19.3143  23.8276
 19.3948  24.008
 19.4752  23.9528
 19.5558  24.1643
 19.6363  25.2267
 19.7168  32.7444
 19.7973  26.7637
 19.8777  36.4761
 19.9582  24.9424
 20.0388  24.2954
 20.1193  24.1225
 20.1998  24.0363
 20.2803  23.9596
 20.3607  23.8503
 20.4413  23.9843
 20.5218  23.9809
 20.6023  24.1058
 20.6828  24.6699
 20.7632  27.0201
 20.8438  24.4551
 20.9243  24.3939
 21.0048  24.1641
 21.0853  24.1151
 21.1658  24.1696
 21.2462  24.2945
 21.3268  24.0638
 21.4073  24.0782
 21.4878  24.16
 21.5683  24.2354
 21.6487  24.2895
 21.7293  24.2487
 21.8098  24.3992
 21.8903  24.4026
 21.9708  24.3242
 22.0512  24.4532
 22.1318  24.6208
 22.2123  24.5917
 22.2928  24.6889
 22.3733  24.7501
 22.4538  24.9528
 22.5343  25.0769
 22.6148  25.1967
 22.6953  25.3727
 22.7758  25.681
 22.8563  25.887
 22.9367  26.6104
 22.9943  28.3749