Folder: scimap-tests/test-data-xrd/xrd-map-34-ID-E (part 21)

File: Data_0086.chi
F:\20151113_APS_34IDE\\Brian\Particle1\OCV\Data_0086.tif
2-Theta Angle (Degrees)
Intensity
       2000
 0.07475  0.0000000E+00
 0.15525  0.0000000E+00
 0.23575  0.0000000E+00
 0.31625  0.0000000E+00
 0.39675  0.0000000E+00
 0.47725  0.0000000E+00
 0.55775  0.0000000E+00
 0.63825  0.0000000E+00
 0.71875  0.0000000E+00
 0.79925  0.0000000E+00
 0.87975  0.0000000E+00
 0.96025  0.0000000E+00
 1.04075  0.0000000E+00
 1.12125  0.0000000E+00
 1.20175  0.0000000E+00
 1.28225  0.0000000E+00
 1.36275  0.0000000E+00
 1.44325  0.0000000E+00
 1.52375  0.0000000E+00
 1.60425  0.0000000E+00
 1.68475  0.0000000E+00
 1.76525  0.0000000E+00
 1.84575  0.0000000E+00
 1.92625  0.0000000E+00
 2.00675  0.0000000E+00
 2.08725  0.0000000E+00
 2.16775  0.0000000E+00
 2.24825  0.0000000E+00
 2.32875  0.0000000E+00
 2.40925  0.0000000E+00
 2.48975  0.0000000E+00
 2.57025  0.0000000E+00
 2.65075  0.0000000E+00
 2.73125  0.0000000E+00
 2.81175  0.0000000E+00
 2.89225  34.899
 2.97275  36.8835
 3.05325  35.1076
 3.13375  35.5978
 3.21425  35.3381
 3.29475  34.7287
 3.37525  34.8926
 3.45575  33.6625
 3.53625  33.9209
 3.61675  33.6609
 3.69725  32.9441
 3.77775  33.775
 3.85825  33.5001
 3.93875  32.1906
 4.01925  32.6479
 4.09975  32.2867
 4.18025  32.3751
 4.26075  32.7908
 4.34125  32.6179
 4.42175  32.6788
 4.50225  32.9258
 4.58275  32.8282
 4.66325  33.0589
 4.74375  32.9709
 4.82425  32.7528
 4.90475  33.1388
 4.98525  33.4504
 5.06575  33.331
 5.14625  33.8184
 5.22675  34.0238
 5.30725  33.962
 5.38775  34.7014
 5.46825  34.7533
 5.54875  35.4581
 5.62925  35.4639
 5.70975  35.5999
 5.79025  35.993
 5.87075  36.3836
 5.95125  42.0631
 6.03175  41.0646
 6.11225  37.0721
 6.19275  36.8421
 6.27325  37.6023
 6.35375  38.0512
 6.43425  38.555
 6.51475  39.2506
 6.59525  39.8511
 6.67575  40.4273
 6.75625  40.8728
 6.83675  41.777
 6.91725  42.0594
 6.99775  42.6316
 7.07825  42.8236
 7.15875  43.3596
 7.23925  43.4181
 7.31975  43.825
 7.40025  44.1447
 7.48075  44.5603
 7.56125  44.4908
 7.64175  44.5821
 7.72225  44.5424
 7.80275  44.4159
 7.88325  44.2044
 7.96375  43.7872
 8.04425  43.5776
 8.12475  42.9301
 8.20525  42.0374
 8.28575  41.1309
 8.36625  40.1429
 8.44675  39.028
 8.52725  37.8713
 8.60775  36.4871
 8.68825  35.2449
 8.76875  34.0851
 8.84925  32.8452
 8.92975  31.8665
 9.01025  30.6874
 9.09075  29.7283
 9.17125  29.0828
 9.25175  28.4457
 9.33225  27.6047
 9.41275  27.0948
 9.49325  26.6735
 9.57375  26.1151
 9.65425  25.6662
 9.73475  25.1836
 9.81525  25.0076
 9.89575  24.6649
 9.97625  24.4526
 10.0567  24.4503
 10.1373  24.0947
 10.2178  23.9098
 10.2982  23.7457
 10.3788  23.4669
 10.4593  23.2707
 10.5397  23.2234
 10.6203  23.1265
 10.7007  22.9473
 10.7813  23.1425
 10.8618  22.8011
 10.9422  22.7832
 11.0228  22.6627
 11.1033  22.6243
 11.1837  22.5328
 11.2643  22.5646
 11.3447  22.3637
 11.4253  22.933
 11.5058  23
 11.5862  27.0757
 11.6668  23.7139
 11.7473  22.5451
 11.8277  22.5417
 11.9083  22.5872
 11.9887  22.8134
 12.0693  23.1069
 12.1498  23.3268
 12.2302  22.5419
 12.3108  22.6765
 12.3913  22.657
 12.4718  22.6129
 12.5523  22.731
 12.6328  22.9404
 12.7133  22.9646
 12.7938  23.2795
 12.8742  23.2755
 12.9548  23.6695
 13.0353  24.1456
 13.1158  24.9282
 13.1963  25.6382
 13.2768  26.6208
 13.3573  27.7153
 13.4378  28.5961
 13.5183  29.32
 13.5988  29.6223
 13.6793  29.707
 13.7598  29.5072
 13.8403  29.4874
 13.9208  33.7962
 14.0013  33.4129
 14.0818  27.9981
 14.1623  27.1668
 14.2428  26.6282
 14.3233  26.1965
 14.4038  26.0856
 14.4843  25.6741
 14.5648  25.3991
 14.6453  25.2662
 14.7258  25.1011
 14.8063  25.0593
 14.8868  24.8848
 14.9673  24.9894
 15.0478  24.7822
 15.1283  25.1729
 15.2088  27.322
 15.2892  24.879
 15.3698  24.6096
 15.4503  24.6114
 15.5308  24.5437
 15.6113  24.5149
 15.6918  24.5823
 15.7723  24.6358
 15.8528  24.5967
 15.9332  24.4955
 16.0138  24.9678
 16.0943  24.6265
 16.1748  24.7501
 16.2553  25.2878
 16.3358  25.0083
 16.4163  24.6928
 16.4967  24.7017
 16.5773  24.6344
 16.6578  24.6296
 16.7383  24.7251
 16.8188  24.46
 16.8992  24.4127
 16.9798  24.168
 17.0603  24.115
 17.1408  24.2263
 17.2213  24.1546
 17.3017  24.1131
 17.3823  24.1063
 17.4628  24.0167
 17.5433  23.9373
 17.6238  24.0058
 17.7042  23.9003
 17.7847  23.7635
 17.8653  23.6649
 17.9458  23.8524
 18.0263  24.3307
 18.1068  24.6421
 18.1872  23.9535
 18.2678  23.6205
 18.3483  23.587
 18.4288  23.5744
 18.5093  23.453
 18.5897  23.5866
 18.6703  23.4937
 18.7508  23.3434
 18.8313  23.3769
 18.9118  23.5758
 18.9922  23.5167
 19.0727  23.5647
 19.1533  23.549
 19.2338  23.4246
 19.3143  23.618
 19.3948  23.7002
 19.4752  23.6821
 19.5558  23.9115
 19.6363  24.3559
 19.7168  26.6163
 19.7973  25.9202
 19.8777  27.4043
 19.9582  24.1147
 20.0388  23.8741
 20.1193  23.9106
 20.1998  23.7195
 20.2803  23.7307
 20.3607  23.6743
 20.4413  23.7281
 20.5218  23.6123
 20.6023  23.8974
 20.6828  24.0876
 20.7632  25.5448
 20.8438  24.2424
 20.9243  24.0874
 21.0048  23.9048
 21.0853  23.7627
 21.1658  23.872
 21.2462  23.8607
 21.3268  23.9719
 21.4073  23.9693
 21.4878  23.9892
 21.5683  24.0392
 21.6487  24.008
 21.7293  24.0041
 21.8098  24.0067
 21.8903  24.1585
 21.9708  24.197
 22.0512  24.3315
 22.1318  24.3137
 22.2123  24.2341
 22.2928  24.4456
 22.3733  24.4873
 22.4538  24.7445
 22.5343  24.7843
 22.6148  24.8157
 22.6953  25.1204
 22.7758  25.2628
 22.8563  25.5812
 22.9367  26.0171
 22.9943  26.6398

File: Data_0087.chi
F:\20151113_APS_34IDE\\Brian\Particle1\OCV\Data_0087.tif
2-Theta Angle (Degrees)
Intensity
       2000
 0.07475  0.0000000E+00
 0.15525  0.0000000E+00
 0.23575  0.0000000E+00
 0.31625  0.0000000E+00
 0.39675  0.0000000E+00
 0.47725  0.0000000E+00
 0.55775  0.0000000E+00
 0.63825  0.0000000E+00
 0.71875  0.0000000E+00
 0.79925  0.0000000E+00
 0.87975  0.0000000E+00
 0.96025  0.0000000E+00
 1.04075  0.0000000E+00
 1.12125  0.0000000E+00
 1.20175  0.0000000E+00
 1.28225  0.0000000E+00
 1.36275  0.0000000E+00
 1.44325  0.0000000E+00
 1.52375  0.0000000E+00
 1.60425  0.0000000E+00
 1.68475  0.0000000E+00
 1.76525  0.0000000E+00
 1.84575  0.0000000E+00
 1.92625  0.0000000E+00
 2.00675  0.0000000E+00
 2.08725  0.0000000E+00
 2.16775  0.0000000E+00
 2.24825  0.0000000E+00
 2.32875  0.0000000E+00
 2.40925  0.0000000E+00
 2.48975  0.0000000E+00
 2.57025  0.0000000E+00
 2.65075  0.0000000E+00
 2.73125  0.0000000E+00
 2.81175  0.0000000E+00
 2.89225  33.7365
 2.97275  34.6635
 3.05325  36.2384
 3.13375  36.2045
 3.21425  36.372
 3.29475  34.7792
 3.37525  35.4838
 3.45575  33.8772
 3.53625  33.9839
 3.61675  33.6875
 3.69725  33.6955
 3.77775  32.7916
 3.85825  32.773
 3.93875  32.4859
 4.01925  32.4433
 4.09975  32.08
 4.18025  32.2161
 4.26075  32.0381
 4.34125  32.2441
 4.42175  32.2662
 4.50225  32.0678
 4.58275  32.6526
 4.66325  32.932
 4.74375  32.4491
 4.82425  32.6325
 4.90475  32.6939
 4.98525  32.9622
 5.06575  33.2389
 5.14625  33.6753
 5.22675  34.1157
 5.30725  33.9334
 5.38775  34.6236
 5.46825  34.488
 5.54875  34.8296
 5.62925  35.2313
 5.70975  35.5262
 5.79025  35.6202
 5.87075  35.7992
 5.95125  37.9262
 6.03175  37.3296
 6.11225  36.8587
 6.19275  36.9715
 6.27325  37.539
 6.35375  38.2685
 6.43425  38.7136
 6.51475  39.0664
 6.59525  39.5438
 6.67575  40.1293
 6.75625  40.4671
 6.83675  41.5247
 6.91725  41.8761
 6.99775  42.2999
 7.07825  42.9902
 7.15875  43.5326
 7.23925  43.6741
 7.31975  43.9405
 7.40025  44.3173
 7.48075  44.4564
 7.56125  44.2491
 7.64175  44.2833
 7.72225  44.5199
 7.80275  44.3389
 7.88325  44.31
 7.96375  44.1914
 8.04425  43.904
 8.12475  42.6991
 8.20525  42.1651
 8.28575  41.2342
 8.36625  40.4183
 8.44675  39.0604
 8.52725  37.8618
 8.60775  36.5567
 8.68825  35.3102
 8.76875  34.0094
 8.84925  32.8975
 8.92975  31.6231
 9.01025  30.6427
 9.09075  29.7308
 9.17125  28.9819
 9.25175  28.3012
 9.33225  27.4897
 9.41275  26.8942
 9.49325  26.3116
 9.57375  25.7306
 9.65425  25.4888
 9.73475  25.1606
 9.81525  24.7981
 9.89575  24.3471
 9.97625  24.187
 10.0567  24.0185
 10.1373  23.78
 10.2178  23.6244
 10.2982  23.507
 10.3788  23.5438
 10.4593  23.2485
 10.5397  23.064
 10.6203  23.0108
 10.7007  22.8554
 10.7813  22.6545
 10.8618  22.5432
 10.9422  22.5748
 11.0228  22.475
 11.1033  22.3632
 11.1837  22.4513
 11.2643  22.4181
 11.3447  22.3493
 11.4253  22.6497
 11.5058  22.4442
 11.5862  23.7677
 11.6668  22.6232
 11.7473  22.3584
 11.8277  22.3085
 11.9083  22.2538
 11.9887  22.4948
 12.0693  22.4018
 12.1498  22.7109
 12.2302  22.329
 12.3108  22.4324
 12.3913  22.4987
 12.4718  22.4932
 12.5523  22.7918
 12.6328  22.8502
 12.7133  22.8467
 12.7938  23.0111
 12.8742  23.2698
 12.9548  23.5359
 13.0353  23.981
 13.1158  24.7848
 13.1963  25.6165
 13.2768  26.5625
 13.3573  27.6918
 13.4378  28.5484
 13.5183  29.2579
 13.5988  29.7391
 13.6793  29.6852
 13.7598  29.2132
 13.8403  28.7585
 13.9208  29.7647
 14.0013  28.9248
 14.0818  27.3095
 14.1623  26.6882
 14.2428  26.4046
 14.3233  25.9433
 14.4038  25.7609
 14.4843  25.338
 14.5648  25.4473
 14.6453  25.2422
 14.7258  24.9608
 14.8063  24.7907
 14.8868  24.6768
 14.9673  24.5947
 15.0478  24.7688
 15.1283  24.7688
 15.2088  26.2526
 15.2892  24.5758
 15.3698  24.2937
 15.4503  24.2697
 15.5308  24.2956
 15.6113  24.4938
 15.6918  24.3445
 15.7723  24.458
 15.8528  24.3931
 15.9332  24.4497
 16.0138  24.2645
 16.0943  24.5688
 16.1748  24.6345
 16.2553  25.0813
 16.3358  24.7067
 16.4163  24.6144
 16.4967  24.4791
 16.5773  24.5385
 16.6578  24.3553
 16.7383  24.2217
 16.8188  24.3199
 16.8992  24.311
 16.9798  24.0334
 17.0603  23.9456
 17.1408  24.1126
 17.2213  24.0706
 17.3017  23.895
 17.3823  23.8477
 17.4628  23.9065
 17.5433  23.7622
 17.6238  23.7227
 17.7042  23.7405
 17.7847  23.5168
 17.8653  23.5769
 17.9458  23.5135
 18.0263  23.6543
 18.1068  23.7393
 18.1872  23.4724
 18.2678  23.4356
 18.3483  23.4305
 18.4288  23.4981
 18.5093  23.3406
 18.5897  23.259
 18.6703  23.3268
 18.7508  23.1801
 18.8313  23.273
 18.9118  23.3171
 18.9922  23.1599
 19.0727  23.3005
 19.1533  23.1544
 19.2338  23.2874
 19.3143  23.2507
 19.3948  23.3768
 19.4752  23.4488
 19.5558  23.3608
 19.6363  23.4412
 19.7168  24.2133
 19.7973  23.8555
 19.8777  24.0179
 19.9582  23.3686
 20.0388  23.4417
 20.1193  23.3849
 20.1998  23.4069
 20.2803  23.3558
 20.3607  23.3777
 20.4413  23.5825
 20.5218  23.4494
 20.6023  23.5435
 20.6828  23.5682
 20.7632  24.0508
 20.8438  23.6831
 20.9243  23.6347
 21.0048  23.4847
 21.0853  23.6205
 21.1658  23.5702
 21.2462  23.6219
 21.3268  23.6167
 21.4073  23.6596
 21.4878  23.8372
 21.5683  23.6525
 21.6487  23.762
 21.7293  23.8335
 21.8098  23.8433
 21.8903  23.8931
 21.9708  23.9014
 22.0512  23.9458
 22.1318  24.0173
 22.2123  23.9944
 22.2928  24.1466
 22.3733  24.3147
 22.4538  24.431
 22.5343  24.5485
 22.6148  24.6663
 22.6953  25.102
 22.7758  24.9433
 22.8563  25.2047
 22.9367  25.5373
 22.9943  25.913

File: Data_0088.chi
F:\20151113_APS_34IDE\\Brian\Particle1\OCV\Data_0088.tif
2-Theta Angle (Degrees)
Intensity
       2000
 0.07475  0.0000000E+00
 0.15525  0.0000000E+00
 0.23575  0.0000000E+00
 0.31625  0.0000000E+00
 0.39675  0.0000000E+00
 0.47725  0.0000000E+00
 0.55775  0.0000000E+00
 0.63825  0.0000000E+00
 0.71875  0.0000000E+00
 0.79925  0.0000000E+00
 0.87975  0.0000000E+00
 0.96025  0.0000000E+00
 1.04075  0.0000000E+00
 1.12125  0.0000000E+00
 1.20175  0.0000000E+00
 1.28225  0.0000000E+00
 1.36275  0.0000000E+00
 1.44325  0.0000000E+00
 1.52375  0.0000000E+00
 1.60425  0.0000000E+00
 1.68475  0.0000000E+00
 1.76525  0.0000000E+00
 1.84575  0.0000000E+00
 1.92625  0.0000000E+00
 2.00675  0.0000000E+00
 2.08725  0.0000000E+00
 2.16775  0.0000000E+00
 2.24825  0.0000000E+00
 2.32875  0.0000000E+00
 2.40925  0.0000000E+00
 2.48975  0.0000000E+00
 2.57025  0.0000000E+00
 2.65075  0.0000000E+00
 2.73125  0.0000000E+00
 2.81175  0.0000000E+00
 2.89225  34.1274
 2.97275  35.8697
 3.05325  35.9116
 3.13375  34.3429
 3.21425  36.2981
 3.29475  34.5662
 3.37525  34.8914
 3.45575  34.9844
 3.53625  34.0731
 3.61675  33.3919
 3.69725  33.5045
 3.77775  33.1029
 3.85825  32.9681
 3.93875  32.8368
 4.01925  32.9034
 4.09975  32.7839
 4.18025  32.3712
 4.26075  32.1338
 4.34125  32.5328
 4.42175  32.6955
 4.50225  32.62
 4.58275  32.7539
 4.66325  32.7763
 4.74375  32.633
 4.82425  32.9327
 4.90475  32.6882
 4.98525  33.2412
 5.06575  33.0681
 5.14625  33.9366
 5.22675  34.083
 5.30725  34.3272
 5.38775  34.8523
 5.46825  34.762
 5.54875  35.051
 5.62925  35.7858
 5.70975  35.5022
 5.79025  36.0616
 5.87075  35.8202
 5.95125  40.2435
 6.03175  39.8963
 6.11225  37.2969
 6.19275  37.103
 6.27325  37.6542
 6.35375  38.754
 6.43425  38.5676
 6.51475  39.4558
 6.59525  39.7579
 6.67575  40.443
 6.75625  40.9609
 6.83675  41.6308
 6.91725  42.438
 6.99775  43.2639
 7.07825  43.0915
 7.15875  43.6471
 7.23925  43.7819
 7.31975  44.392
 7.40025  44.0889
 7.48075  44.5318
 7.56125  44.6991
 7.64175  44.7349
 7.72225  44.5339
 7.80275  45.0754
 7.88325  44.5374
 7.96375  44.159
 8.04425  43.6634
 8.12475  43.1916
 8.20525  42.0552
 8.28575  41.2732
 8.36625  40.1099
 8.44675  39.2872
 8.52725  38.2462
 8.60775  36.7876
 8.68825  35.6329
 8.76875  34.3563
 8.84925  32.9936
 8.92975  32.0074
 9.01025  30.829
 9.09075  30.0625
 9.17125  29.4083
 9.25175  28.3689
 9.33225  27.8545
 9.41275  26.9372
 9.49325  26.5549
 9.57375  26.1454
 9.65425  25.7619
 9.73475  25.4049
 9.81525  24.9925
 9.89575  24.7269
 9.97625  24.5347
 10.0567  24.2943
 10.1373  24.0453
 10.2178  23.8781
 10.2982  23.7994
 10.3788  23.4475
 10.4593  23.1833
 10.5397  23.305
 10.6203  22.9786
 10.7007  23.0617
 10.7813  22.8155
 10.8618  22.813
 10.9422  22.6041
 11.0228  22.569
 11.1033  22.5525
 11.1837  22.6271
 11.2643  22.5885
 11.3447  22.5258
 11.4253  22.7302
 11.5058  22.8036
 11.5862  28.4258
 11.6668  23.3883
 11.7473  22.6158
 11.8277  22.5047
 11.9083  22.483
 11.9887  23.0688
 12.0693  22.8504
 12.1498  22.7016
 12.2302  22.4037
 12.3108  22.5465
 12.3913  22.4937
 12.4718  22.4974
 12.5523  22.7293
 12.6328  22.8414
 12.7133  22.91
 12.7938  23.0599
 12.8742  23.2767
 12.9548  23.804
 13.0353  24.1188
 13.1158  24.9012
 13.1963  25.769
 13.2768  26.8097
 13.3573  27.6765
 13.4378  28.7295
 13.5183  29.3077
 13.5988  29.8955
 13.6793  29.9554
 13.7598  29.4942
 13.8403  29.0885
 13.9208  30.2838
 14.0013  29.2218
 14.0818  27.544
 14.1623  27.0918
 14.2428  26.5278
 14.3233  26.2802
 14.4038  26.0478
 14.4843  25.6467
 14.5648  25.635
 14.6453  25.4083
 14.7258  25.2837
 14.8063  25.094
 14.8868  24.9832
 14.9673  24.952
 15.0478  24.8711
 15.1283  24.8803
 15.2088  25.5204
 15.2892  24.7957
 15.3698  24.5938
 15.4503  24.4718
 15.5308  24.3839
 15.6113  24.655
 15.6918  24.6442
 15.7723  24.584
 15.8528  24.5799
 15.9332  24.6827
 16.0138  24.7327
 16.0943  24.6867
 16.1748  24.8261
 16.2553  25.1276
 16.3358  24.973
 16.4163  24.8312
 16.4967  24.6176
 16.5773  24.6673
 16.6578  24.6872
 16.7383  24.5638
 16.8188  24.5871
 16.8992  24.3258
 16.9798  24.5773
 17.0603  24.1093
 17.1408  24.131
 17.2213  24.1603
 17.3017  24.1999
 17.3823  24.0107
 17.4628  24.0482
 17.5433  23.818
 17.6238  23.8418
 17.7042  23.751
 17.7847  23.8189
 17.8653  23.8807
 17.9458  23.6999
 18.0263  23.8451
 18.1068  24.063
 18.1872  23.6374
 18.2678  23.6853
 18.3483  23.506
 18.4288  23.5917
 18.5093  23.5974
 18.5897  23.5469
 18.6703  23.566
 18.7508  23.6137
 18.8313  23.5291
 18.9118  23.6329
 18.9922  23.4974
 19.0727  23.5266
 19.1533  23.5022
 19.2338  23.5232
 19.3143  23.5037
 19.3948  23.5675
 19.4752  23.6639
 19.5558  23.6341
 19.6363  23.7118
 19.7168  25.4188
 19.7973  24.2346
 19.8777  25.193
 19.9582  23.6664
 20.0388  23.6229
 20.1193  23.6998
 20.1998  23.5731
 20.2803  23.7002
 20.3607  23.6921
 20.4413  23.7156
 20.5218  23.7163
 20.6023  23.8621
 20.6828  23.9414
 20.7632  25.0678
 20.8438  24.0895
 20.9243  23.956
 21.0048  24.1742
 21.0853  23.8322
 21.1658  23.743
 21.2462  23.8538
 21.3268  23.8575
 21.4073  23.8303
 21.4878  23.8683
 21.5683  23.9671
 21.6487  24.1363
 21.7293  24.1306
 21.8098  24.0732
 21.8903  24.0961
 21.9708  24.2055
 22.0512  24.1889
 22.1318  24.3203
 22.2123  24.3686
 22.2928  24.4644
 22.3733  24.5127
 22.4538  24.6162
 22.5343  24.6813
 22.6148  24.9139
 22.6953  25.1136
 22.7758  25.126
 22.8563  25.4716
 22.9367  25.9439
 22.9943  26.196

File: Data_0089.chi
F:\20151113_APS_34IDE\\Brian\Particle1\OCV\Data_0089.tif
2-Theta Angle (Degrees)
Intensity
       2000
 0.07475  0.0000000E+00
 0.15525  0.0000000E+00
 0.23575  0.0000000E+00
 0.31625  0.0000000E+00
 0.39675  0.0000000E+00
 0.47725  0.0000000E+00
 0.55775  0.0000000E+00
 0.63825  0.0000000E+00
 0.71875  0.0000000E+00
 0.79925  0.0000000E+00
 0.87975  0.0000000E+00
 0.96025  0.0000000E+00
 1.04075  0.0000000E+00
 1.12125  0.0000000E+00
 1.20175  0.0000000E+00
 1.28225  0.0000000E+00
 1.36275  0.0000000E+00
 1.44325  0.0000000E+00
 1.52375  0.0000000E+00
 1.60425  0.0000000E+00
 1.68475  0.0000000E+00
 1.76525  0.0000000E+00
 1.84575  0.0000000E+00
 1.92625  0.0000000E+00
 2.00675  0.0000000E+00
 2.08725  0.0000000E+00
 2.16775  0.0000000E+00
 2.24825  0.0000000E+00
 2.32875  0.0000000E+00
 2.40925  0.0000000E+00
 2.48975  0.0000000E+00
 2.57025  0.0000000E+00
 2.65075  0.0000000E+00
 2.73125  0.0000000E+00
 2.81175  0.0000000E+00
 2.89225  35.3031
 2.97275  35.184
 3.05325  35.204
 3.13375  34.9318
 3.21425  35.1979
 3.29475  35.7463
 3.37525  34.8146
 3.45575  34.3902
 3.53625  34.5162
 3.61675  33.9221
 3.69725  34.2494
 3.77775  33.9945
 3.85825  33.4762
 3.93875  33.063
 4.01925  32.2604
 4.09975  32.7963
 4.18025  32.997
 4.26075  32.9763
 4.34125  32.3191
 4.42175  32.8382
 4.50225  33.1614
 4.58275  32.9749
 4.66325  33.2248
 4.74375  32.7579
 4.82425  33.0398
 4.90475  33.1847
 4.98525  33.4026
 5.06575  33.8618
 5.14625  34.0055
 5.22675  34.5572
 5.30725  34.7919
 5.38775  35.1304
 5.46825  35.5596
 5.54875  35.6321
 5.62925  36.0211
 5.70975  36.8501
 5.79025  37.7957
 5.87075  40.8685
 5.95125  101.252
 6.03175  98.0429
 6.11225  41.0573
 6.19275  38.9753
 6.27325  38.5265
 6.35375  39.0915
 6.43425  39.1731
 6.51475  40.0822
 6.59525  40.0314
 6.67575  40.8154
 6.75625  41.3814
 6.83675  41.9695
 6.91725  42.4338
 6.99775  42.7598
 7.07825  43.1191
 7.15875  43.8938
 7.23925  43.984
 7.31975  44.1953
 7.40025  44.9062
 7.48075  44.7265
 7.56125  44.7835
 7.64175  45.0126
 7.72225  44.7559
 7.80275  44.9189
 7.88325  44.6366
 7.96375  44.3552
 8.04425  43.8617
 8.12475  43.1939
 8.20525  42.3304
 8.28575  41.5494
 8.36625  40.4409
 8.44675  39.2959
 8.52725  38.1524
 8.60775  37.0671
 8.68825  35.5442
 8.76875  34.2349
 8.84925  33.3701
 8.92975  32.3201
 9.01025  30.881
 9.09075  30.2428
 9.17125  29.2405
 9.25175  28.3353
 9.33225  27.8644
 9.41275  27.444
 9.49325  26.7811
 9.57375  26.2191
 9.65425  25.8495
 9.73475  25.3476
 9.81525  25.0189
 9.89575  24.8305
 9.97625  24.7323
 10.0567  24.3723
 10.1373  24.1917
 10.2178  24.0747
 10.2982  23.7164
 10.3788  23.5187
 10.4593  23.4848
 10.5397  23.364
 10.6203  23.2112
 10.7007  23.2852
 10.7813  22.9719
 10.8618  22.9163
 10.9422  22.9558
 11.0228  22.8618
 11.1033  22.8882
 11.1837  22.7459
 11.2643  22.692
 11.3447  22.68
 11.4253  23.0974
 11.5058  23.333
 11.5862  33.008
 11.6668  24.5138
 11.7473  23.2433
 11.8277  22.8718
 11.9083  22.8023
 11.9887  23.8289
 12.0693  24.0903
 12.1498  24.175
 12.2302  22.8213
 12.3108  22.6501
 12.3913  22.7623
 12.4718  22.891
 12.5523  22.861
 12.6328  23.0003
 12.7133  23.2471
 12.7938  23.3064
 12.8742  23.5064
 12.9548  24.0062
 13.0353  24.5144
 13.1158  24.9373
 13.1963  25.7808
 13.2768  26.8315
 13.3573  28.1166
 13.4378  28.8252
 13.5183  29.4747
 13.5988  30.0633
 13.6793  30.1611
 13.7598  29.6815
 13.8403  29.613
 13.9208  32.3876
 14.0013  31.474
 14.0818  28.2192
 14.1623  27.3529
 14.2428  26.7773
 14.3233  26.4442
 14.4038  26.2584
 14.4843  25.9983
 14.5648  25.8249
 14.6453  25.5072
 14.7258  25.367
 14.8063  25.3251
 14.8868  25.2576
 14.9673  25.1836
 15.0478  25.0596
 15.1283  25.8153
 15.2088  29.3426
 15.2892  25.3485
 15.3698  24.9016
 15.4503  24.8138
 15.5308  24.7934
 15.6113  24.6386
 15.6918  24.7758
 15.7723  24.8256
 15.8528  24.8945
 15.9332  24.8642
 16.0138  24.8666
 16.0943  24.8489
 16.1748  25.3456
 16.2553  28.8496
 16.3358  25.4041
 16.4163  25.0065
 16.4967  24.855
 16.5773  24.9167
 16.6578  24.8805
 16.7383  24.626
 16.8188  24.6275
 16.8992  24.5398
 16.9798  24.6206
 17.0603  24.4111
 17.1408  24.4636
 17.2213  24.4459
 17.3017  24.3705
 17.3823  24.2122
 17.4628  24.2315
 17.5433  24.1404
 17.6238  24.064
 17.7042  24.0681
 17.7847  23.9813
 17.8653  24.0568
 17.9458  24.26
 18.0263  24.9335
 18.1068  27.4707
 18.1872  24.8674
 18.2678  23.8847
 18.3483  23.8977
 18.4288  23.8208
 18.5093  23.7052
 18.5897  23.6951
 18.6703  23.6209
 18.7508  23.7066
 18.8313  23.6311
 18.9118  23.6946
 18.9922  23.7379
 19.0727  23.7319
 19.1533  23.6872
 19.2338  23.737
 19.3143  23.7585
 19.3948  23.8589
 19.4752  23.7195
 19.5558  23.9389
 19.6363  24.2309
 19.7168  26.3872
 19.7973  26.2424
 19.8777  29.2179
 19.9582  24.6254
 20.0388  24.0832
 20.1193  23.9889
 20.1998  23.9071
 20.2803  24.062
 20.3607  23.9435
 20.4413  24.0602
 20.5218  24.1175
 20.6023  24.3287
 20.6828  25.0798
 20.7632  31.4996
 20.8438  25.4471
 20.9243  24.3375
 21.0048  24.2542
 21.0853  24.0396
 21.1658  23.9356
 21.2462  24.1399
 21.3268  23.9376
 21.4073  24.1057
 21.4878  24.0573
 21.5683  24.13
 21.6487  24.2774
 21.7293  24.2705
 21.8098  24.2271
 21.8903  24.2368
 21.9708  24.3476
 22.0512  24.3415
 22.1318  24.5296
 22.2123  24.4533
 22.2928  24.7008
 22.3733  24.6996
 22.4538  24.7935
 22.5343  24.9382
 22.6148  24.9744
 22.6953  25.4198
 22.7758  25.5066
 22.8563  25.7452
 22.9367  26.1923
 22.9943  26.5198