Folder: scimap-tests/test-data-xrd/xrd-map-34-ID-E (part 28)

File: Data_0115.chi
F:\20151113_APS_34IDE\\Brian\Particle1\OCV\Data_0115.tif
2-Theta Angle (Degrees)
Intensity
       2000
 0.07475  0.0000000E+00
 0.15525  0.0000000E+00
 0.23575  0.0000000E+00
 0.31625  0.0000000E+00
 0.39675  0.0000000E+00
 0.47725  0.0000000E+00
 0.55775  0.0000000E+00
 0.63825  0.0000000E+00
 0.71875  0.0000000E+00
 0.79925  0.0000000E+00
 0.87975  0.0000000E+00
 0.96025  0.0000000E+00
 1.04075  0.0000000E+00
 1.12125  0.0000000E+00
 1.20175  0.0000000E+00
 1.28225  0.0000000E+00
 1.36275  0.0000000E+00
 1.44325  0.0000000E+00
 1.52375  0.0000000E+00
 1.60425  0.0000000E+00
 1.68475  0.0000000E+00
 1.76525  0.0000000E+00
 1.84575  0.0000000E+00
 1.92625  0.0000000E+00
 2.00675  0.0000000E+00
 2.08725  0.0000000E+00
 2.16775  0.0000000E+00
 2.24825  0.0000000E+00
 2.32875  0.0000000E+00
 2.40925  0.0000000E+00
 2.48975  0.0000000E+00
 2.57025  0.0000000E+00
 2.65075  0.0000000E+00
 2.73125  0.0000000E+00
 2.81175  0.0000000E+00
 2.89225  34.0614
 2.97275  35.3702
 3.05325  35.2731
 3.13375  34.3015
 3.21425  34.143
 3.29475  34.6119
 3.37525  34.6876
 3.45575  33.5727
 3.53625  33.799
 3.61675  33.1692
 3.69725  32.5662
 3.77775  32.2476
 3.85825  32.115
 3.93875  31.7142
 4.01925  32.2876
 4.09975  31.7988
 4.18025  31.6686
 4.26075  31.8623
 4.34125  31.747
 4.42175  32.5964
 4.50225  32.0465
 4.58275  32.1232
 4.66325  32.3728
 4.74375  32.3352
 4.82425  32.0751
 4.90475  32.2398
 4.98525  32.3281
 5.06575  32.7346
 5.14625  32.9194
 5.22675  33.4612
 5.30725  33.4936
 5.38775  33.9246
 5.46825  34.172
 5.54875  34.8795
 5.62925  34.7644
 5.70975  35.6392
 5.79025  36.2471
 5.87075  38.0564
 5.95125  87.5697
 6.03175  66.7157
 6.11225  38.2792
 6.19275  37.2106
 6.27325  37.0524
 6.35375  37.525
 6.43425  38.0581
 6.51475  38.5369
 6.59525  38.775
 6.67575  39.4848
 6.75625  39.9413
 6.83675  40.7701
 6.91725  41.0814
 6.99775  41.2771
 7.07825  42.1435
 7.15875  42.1094
 7.23925  42.8131
 7.31975  42.6341
 7.40025  42.7892
 7.48075  43.2748
 7.56125  43.3743
 7.64175  43.634
 7.72225  43.3395
 7.80275  43.2732
 7.88325  42.892
 7.96375  42.3546
 8.04425  42.0395
 8.12475  41.7236
 8.20525  40.8385
 8.28575  39.9927
 8.36625  39.0719
 8.44675  37.7794
 8.52725  36.7969
 8.60775  35.4056
 8.68825  34.5685
 8.76875  33.3647
 8.84925  32.2763
 8.92975  30.9736
 9.01025  29.9015
 9.09075  29.3262
 9.17125  28.3987
 9.25175  27.4125
 9.33225  26.8599
 9.41275  26.8021
 9.49325  26.1268
 9.57375  25.5734
 9.65425  25.1456
 9.73475  24.6859
 9.81525  24.6581
 9.89575  24.1287
 9.97625  23.9946
 10.0567  23.7719
 10.1373  23.8307
 10.2178  23.4942
 10.2982  23.1782
 10.3788  22.9981
 10.4593  22.8892
 10.5397  22.8744
 10.6203  22.6335
 10.7007  22.5057
 10.7813  22.5184
 10.8618  22.392
 10.9422  22.3204
 11.0228  22.187
 11.1033  22.197
 11.1837  22.1677
 11.2643  22.0658
 11.3447  22.1922
 11.4253  22.4729
 11.5058  23.0066
 11.5862  30.6343
 11.6668  24.8233
 11.7473  22.3316
 11.8277  22.1554
 11.9083  22.3544
 11.9887  22.9897
 12.0693  24.2238
 12.1498  23.8818
 12.2302  22.2678
 12.3108  22.3379
 12.3913  22.3379
 12.4718  22.2278
 12.5523  22.3439
 12.6328  22.3176
 12.7133  22.6443
 12.7938  22.803
 12.8742  23.0486
 12.9548  23.3922
 13.0353  23.7382
 13.1158  24.4859
 13.1963  25.1398
 13.2768  26.2139
 13.3573  27.1882
 13.4378  28.124
 13.5183  28.9335
 13.5988  29.3239
 13.6793  29.2684
 13.7598  29.0296
 13.8403  29.2978
 13.9208  40.0732
 14.0013  34.2575
 14.0818  27.6221
 14.1623  26.7406
 14.2428  26.0004
 14.3233  25.7636
 14.4038  25.5166
 14.4843  25.2699
 14.5648  25.2134
 14.6453  25.0388
 14.7258  24.7509
 14.8063  24.4286
 14.8868  24.4722
 14.9673  24.3549
 15.0478  24.4168
 15.1283  24.663
 15.2088  25.5443
 15.2892  24.3037
 15.3698  24.207
 15.4503  24.1376
 15.5308  24.0321
 15.6113  24.2037
 15.6918  24.2771
 15.7723  24.3104
 15.8528  24.2414
 15.9332  24.2711
 16.0138  24.3344
 16.0943  24.4378
 16.1748  24.4963
 16.2553  26.1333
 16.3358  24.7785
 16.4163  24.8084
 16.4967  24.2547
 16.5773  24.2251
 16.6578  24.132
 16.7383  24.0441
 16.8188  24.1034
 16.8992  24.0631
 16.9798  23.9067
 17.0603  23.8254
 17.1408  23.8072
 17.2213  23.9593
 17.3017  23.8974
 17.3823  23.6934
 17.4628  23.7148
 17.5433  23.5235
 17.6238  23.5422
 17.7042  23.5551
 17.7847  23.6292
 17.8653  23.4767
 17.9458  23.5917
 18.0263  24.3746
 18.1068  28.5445
 18.1872  24.6623
 18.2678  23.4146
 18.3483  23.3192
 18.4288  23.2883
 18.5093  23.2924
 18.5897  23.2285
 18.6703  23.1515
 18.7508  23.0956
 18.8313  23.136
 18.9118  23.2255
 18.9922  23.1345
 19.0727  23.2907
 19.1533  23.5647
 19.2338  23.2264
 19.3143  23.2636
 19.3948  23.4892
 19.4752  23.3956
 19.5558  23.5804
 19.6363  23.962
 19.7168  27.5133
 19.7973  25.5152
 19.8777  27.9672
 19.9582  23.9486
 20.0388  23.6275
 20.1193  23.4886
 20.1998  23.4211
 20.2803  23.2974
 20.3607  23.4223
 20.4413  23.481
 20.5218  23.4782
 20.6023  23.6634
 20.6828  24.4307
 20.7632  26.2506
 20.8438  23.8941
 20.9243  23.7445
 21.0048  23.6107
 21.0853  23.6221
 21.1658  23.5607
 21.2462  23.6711
 21.3268  23.566
 21.4073  23.6001
 21.4878  23.6834
 21.5683  23.735
 21.6487  23.77
 21.7293  23.7435
 21.8098  23.8715
 21.8903  23.9191
 21.9708  23.8077
 22.0512  24.0985
 22.1318  24.0639
 22.2123  24.0055
 22.2928  24.1211
 22.3733  24.2561
 22.4538  24.3713
 22.5343  24.4843
 22.6148  24.5614
 22.6953  24.7383
 22.7758  24.9995
 22.8563  25.2317
 22.9367  25.6616
 22.9943  26.3067

File: Data_0116.chi
F:\20151113_APS_34IDE\\Brian\Particle1\OCV\Data_0116.tif
2-Theta Angle (Degrees)
Intensity
       2000
 0.07475  0.0000000E+00
 0.15525  0.0000000E+00
 0.23575  0.0000000E+00
 0.31625  0.0000000E+00
 0.39675  0.0000000E+00
 0.47725  0.0000000E+00
 0.55775  0.0000000E+00
 0.63825  0.0000000E+00
 0.71875  0.0000000E+00
 0.79925  0.0000000E+00
 0.87975  0.0000000E+00
 0.96025  0.0000000E+00
 1.04075  0.0000000E+00
 1.12125  0.0000000E+00
 1.20175  0.0000000E+00
 1.28225  0.0000000E+00
 1.36275  0.0000000E+00
 1.44325  0.0000000E+00
 1.52375  0.0000000E+00
 1.60425  0.0000000E+00
 1.68475  0.0000000E+00
 1.76525  0.0000000E+00
 1.84575  0.0000000E+00
 1.92625  0.0000000E+00
 2.00675  0.0000000E+00
 2.08725  0.0000000E+00
 2.16775  0.0000000E+00
 2.24825  0.0000000E+00
 2.32875  0.0000000E+00
 2.40925  0.0000000E+00
 2.48975  0.0000000E+00
 2.57025  0.0000000E+00
 2.65075  0.0000000E+00
 2.73125  0.0000000E+00
 2.81175  0.0000000E+00
 2.89225  35.1508
 2.97275  33.8936
 3.05325  34.7247
 3.13375  34.0894
 3.21425  33.6981
 3.29475  33.3541
 3.37525  33.8304
 3.45575  33.4056
 3.53625  33.4551
 3.61675  32.9029
 3.69725  32.7021
 3.77775  32.6525
 3.85825  32.1479
 3.93875  32.1602
 4.01925  32.1773
 4.09975  31.6779
 4.18025  31.8897
 4.26075  31.8656
 4.34125  31.602
 4.42175  31.604
 4.50225  31.9664
 4.58275  32.1415
 4.66325  32.3317
 4.74375  31.9975
 4.82425  32.2531
 4.90475  32.3805
 4.98525  32.213
 5.06575  32.7805
 5.14625  33.0596
 5.22675  33.4395
 5.30725  33.6263
 5.38775  34.043
 5.46825  34.318
 5.54875  34.625
 5.62925  34.5814
 5.70975  35.0857
 5.79025  35.1781
 5.87075  35.2623
 5.95125  39.9704
 6.03175  38.9784
 6.11225  36.0906
 6.19275  36.5124
 6.27325  36.9666
 6.35375  37.4481
 6.43425  37.8506
 6.51475  38.3743
 6.59525  38.7911
 6.67575  39.4047
 6.75625  39.8599
 6.83675  40.6993
 6.91725  41.1816
 6.99775  41.8496
 7.07825  42.2313
 7.15875  42.4478
 7.23925  42.4597
 7.31975  42.9321
 7.40025  43.2201
 7.48075  43.3677
 7.56125  43.5857
 7.64175  43.3908
 7.72225  43.0922
 7.80275  43.3423
 7.88325  43.2237
 7.96375  42.7786
 8.04425  42.5947
 8.12475  41.6168
 8.20525  40.9717
 8.28575  40.1691
 8.36625  39.1195
 8.44675  38.0007
 8.52725  36.9247
 8.60775  35.6943
 8.68825  34.9298
 8.76875  33.3202
 8.84925  32.3183
 8.92975  31.1615
 9.01025  30.1009
 9.09075  29.2981
 9.17125  28.428
 9.25175  27.4495
 9.33225  27.0554
 9.41275  26.5711
 9.49325  26.0225
 9.57375  25.4276
 9.65425  25.145
 9.73475  24.6338
 9.81525  24.3105
 9.89575  24.1398
 9.97625  24.0088
 10.0567  23.6522
 10.1373  23.6034
 10.2178  23.4319
 10.2982  23.2125
 10.3788  23.0558
 10.4593  22.9486
 10.5397  22.9499
 10.6203  22.8897
 10.7007  22.5457
 10.7813  22.377
 10.8618  22.3958
 10.9422  22.5555
 11.0228  22.3758
 11.1033  22.231
 11.1837  22.1489
 11.2643  21.9765
 11.3447  22.1928
 11.4253  22.5466
 11.5058  22.8093
 11.5862  26.1023
 11.6668  23.0909
 11.7473  22.232
 11.8277  22.2292
 11.9083  22.456
 11.9887  25.8495
 12.0693  23.9467
 12.1498  23.1729
 12.2302  22.099
 12.3108  22.2294
 12.3913  22.288
 12.4718  22.1958
 12.5523  22.2476
 12.6328  22.4512
 12.7133  22.5447
 12.7938  22.6788
 12.8742  23.167
 12.9548  23.3027
 13.0353  23.6978
 13.1158  24.4184
 13.1963  25.0614
 13.2768  26.1419
 13.3573  27.0457
 13.4378  28.0418
 13.5183  28.7771
 13.5988  29.3125
 13.6793  29.2326
 13.7598  29.0303
 13.8403  29.1099
 13.9208  33.8804
 14.0013  31.4711
 14.0818  27.3574
 14.1623  26.565
 14.2428  26.3131
 14.3233  25.6692
 14.4038  25.7976
 14.4843  25.4281
 14.5648  25.2252
 14.6453  25.0201
 14.7258  24.7479
 14.8063  24.5353
 14.8868  24.5759
 14.9673  24.4345
 15.0478  24.5297
 15.1283  25.2273
 15.2088  27.3538
 15.2892  24.7166
 15.3698  24.3435
 15.4503  24.3425
 15.5308  24.3278
 15.6113  24.0004
 15.6918  24.1057
 15.7723  24.1177
 15.8528  24.2008
 15.9332  24.3174
 16.0138  24.1546
 16.0943  24.4777
 16.1748  24.454
 16.2553  25.4269
 16.3358  24.5804
 16.4163  24.38
 16.4967  24.2975
 16.5773  24.1505
 16.6578  24.2865
 16.7383  24.0941
 16.8188  24.1296
 16.8992  23.8445
 16.9798  23.9616
 17.0603  23.9275
 17.1408  23.8065
 17.2213  23.9261
 17.3017  23.7879
 17.3823  23.6604
 17.4628  23.5993
 17.5433  23.6131
 17.6238  23.5385
 17.7042  23.5001
 17.7847  23.5715
 17.8653  23.494
 17.9458  23.493
 18.0263  23.8102
 18.1068  24.6938
 18.1872  23.7149
 18.2678  23.2683
 18.3483  23.1569
 18.4288  23.3563
 18.5093  23.2004
 18.5897  23.2312
 18.6703  23.2365
 18.7508  23.0735
 18.8313  23.1318
 18.9118  23.1092
 18.9922  23.1259
 19.0727  23.2116
 19.1533  23.1702
 19.2338  23.1333
 19.3143  23.2394
 19.3948  23.3354
 19.4752  23.3528
 19.5558  23.3994
 19.6363  23.7477
 19.7168  25.7756
 19.7973  24.9855
 19.8777  25.7868
 19.9582  23.6085
 20.0388  23.5137
 20.1193  23.4281
 20.1998  23.4631
 20.2803  23.3367
 20.3607  23.4842
 20.4413  23.4071
 20.5218  23.3486
 20.6023  23.5178
 20.6828  23.997
 20.7632  25.3877
 20.8438  23.9173
 20.9243  23.8928
 21.0048  23.7811
 21.0853  23.6009
 21.1658  23.5073
 21.2462  23.4876
 21.3268  23.5545
 21.4073  23.5663
 21.4878  23.5843
 21.5683  23.7715
 21.6487  23.6113
 21.7293  23.7802
 21.8098  23.7133
 21.8903  23.8914
 21.9708  23.8126
 22.0512  23.8537
 22.1318  23.9899
 22.2123  23.9162
 22.2928  23.9378
 22.3733  24.0639
 22.4538  24.276
 22.5343  24.3366
 22.6148  24.5579
 22.6953  24.6688
 22.7758  24.8956
 22.8563  25.1687
 22.9367  25.5012
 22.9943  25.8785

File: Data_0117.chi
F:\20151113_APS_34IDE\\Brian\Particle1\OCV\Data_0117.tif
2-Theta Angle (Degrees)
Intensity
       2000
 0.07475  0.0000000E+00
 0.15525  0.0000000E+00
 0.23575  0.0000000E+00
 0.31625  0.0000000E+00
 0.39675  0.0000000E+00
 0.47725  0.0000000E+00
 0.55775  0.0000000E+00
 0.63825  0.0000000E+00
 0.71875  0.0000000E+00
 0.79925  0.0000000E+00
 0.87975  0.0000000E+00
 0.96025  0.0000000E+00
 1.04075  0.0000000E+00
 1.12125  0.0000000E+00
 1.20175  0.0000000E+00
 1.28225  0.0000000E+00
 1.36275  0.0000000E+00
 1.44325  0.0000000E+00
 1.52375  0.0000000E+00
 1.60425  0.0000000E+00
 1.68475  0.0000000E+00
 1.76525  0.0000000E+00
 1.84575  0.0000000E+00
 1.92625  0.0000000E+00
 2.00675  0.0000000E+00
 2.08725  0.0000000E+00
 2.16775  0.0000000E+00
 2.24825  0.0000000E+00
 2.32875  0.0000000E+00
 2.40925  0.0000000E+00
 2.48975  0.0000000E+00
 2.57025  0.0000000E+00
 2.65075  0.0000000E+00
 2.73125  0.0000000E+00
 2.81175  0.0000000E+00
 2.89225  34.282
 2.97275  35.3082
 3.05325  35.355
 3.13375  35.077
 3.21425  35.216
 3.29475  35.4822
 3.37525  33.714
 3.45575  33.7629
 3.53625  33.5027
 3.61675  33.5656
 3.69725  33.0157
 3.77775  32.2921
 3.85825  32.0483
 3.93875  32.7167
 4.01925  31.8319
 4.09975  32.0164
 4.18025  31.2628
 4.26075  31.351
 4.34125  31.6767
 4.42175  31.7505
 4.50225  31.8335
 4.58275  32.3324
 4.66325  32.4878
 4.74375  32.6018
 4.82425  32.151
 4.90475  32.3033
 4.98525  32.4624
 5.06575  32.9533
 5.14625  33.1201
 5.22675  33.4307
 5.30725  33.7095
 5.38775  33.7774
 5.46825  34.0553
 5.54875  34.5628
 5.62925  34.8625
 5.70975  35.3173
 5.79025  35.6207
 5.87075  36.5468
 5.95125  55.19
 6.03175  54.5342
 6.11225  37.3997
 6.19275  36.8393
 6.27325  36.9981
 6.35375  37.5238
 6.43425  38.1031
 6.51475  38.3664
 6.59525  39.1023
 6.67575  39.9445
 6.75625  40.193
 6.83675  40.8552
 6.91725  41.3832
 6.99775  41.438
 7.07825  42.2287
 7.15875  42.7317
 7.23925  43.0258
 7.31975  43.0943
 7.40025  43.3303
 7.48075  43.7032
 7.56125  43.6883
 7.64175  43.4751
 7.72225  43.5677
 7.80275  43.4222
 7.88325  43.3523
 7.96375  42.9082
 8.04425  42.591
 8.12475  42.1372
 8.20525  41.1472
 8.28575  40.4841
 8.36625  39.6041
 8.44675  38.3373
 8.52725  37.2525
 8.60775  35.7553
 8.68825  34.9037
 8.76875  33.5057
 8.84925  32.3803
 8.92975  31.079
 9.01025  30.0023
 9.09075  29.3365
 9.17125  28.5596
 9.25175  27.8041
 9.33225  27.2707
 9.41275  26.5328
 9.49325  26.3429
 9.57375  25.5342
 9.65425  25.2443
 9.73475  24.9675
 9.81525  24.6822
 9.89575  24.4876
 9.97625  24.2116
 10.0567  23.9321
 10.1373  23.6898
 10.2178  23.5384
 10.2982  23.2551
 10.3788  23.0791
 10.4593  23.5438
 10.5397  22.9679
 10.6203  22.8365
 10.7007  22.5113
 10.7813  22.5687
 10.8618  22.4486
 10.9422  22.4279
 11.0228  22.4125
 11.1033  22.3858
 11.1837  22.0749
 11.2643  22.1542
 11.3447  22.1146
 11.4253  22.5127
 11.5058  22.4369
 11.5862  23.9376
 11.6668  22.63
 11.7473  22.0522
 11.8277  22.2702
 11.9083  22.1889
 11.9887  22.7501
 12.0693  22.8584
 12.1498  22.6474
 12.2302  22.2271
 12.3108  22.2611
 12.3913  22.2868
 12.4718  22.3072
 12.5523  22.557
 12.6328  22.523
 12.7133  22.6988
 12.7938  22.7
 12.8742  23.1264
 12.9548  23.5315
 13.0353  23.8225
 13.1158  24.4819
 13.1963  25.2546
 13.2768  26.2478
 13.3573  27.3505
 13.4378  28.0508
 13.5183  29.0441
 13.5988  29.2472
 13.6793  29.2528
 13.7598  29.1596
 13.8403  28.9548
 13.9208  32.6256
 14.0013  31.9883
 14.0818  27.551
 14.1623  26.8065
 14.2428  26.2257
 14.3233  25.7871
 14.4038  25.6674
 14.4843  25.2701
 14.5648  25.1581
 14.6453  25.059
 14.7258  24.8565
 14.8063  24.6983
 14.8868  24.5977
 14.9673  24.4784
 15.0478  24.4225
 15.1283  24.7234
 15.2088  25.4818
 15.2892  24.3938
 15.3698  24.2205
 15.4503  24.2715
 15.5308  24.1775
 15.6113  24.2517
 15.6918  24.1678
 15.7723  24.2394
 15.8528  24.1976
 15.9332  24.227
 16.0138  24.4495
 16.0943  24.3398
 16.1748  24.49
 16.2553  25.4419
 16.3358  24.5898
 16.4163  24.4978
 16.4967  24.3975
 16.5773  24.2643
 16.6578  24.2641
 16.7383  24.1364
 16.8188  24.0521
 16.8992  23.9782
 16.9798  24.024
 17.0603  23.8223
 17.1408  23.9474
 17.2213  23.8798
 17.3017  23.8287
 17.3823  23.7095
 17.4628  23.5887
 17.5433  23.558
 17.6238  23.542
 17.7042  23.7031
 17.7847  23.3927
 17.8653  23.4943
 17.9458  23.4931
 18.0263  23.932
 18.1068  24.0583
 18.1872  23.4582
 18.2678  23.3211
 18.3483  23.2973
 18.4288  23.2761
 18.5093  23.2308
 18.5897  23.2789
 18.6703  23.2798
 18.7508  23.0845
 18.8313  23.1472
 18.9118  23.2403
 18.9922  23.1439
 19.0727  23.1133
 19.1533  23.1607
 19.2338  23.2512
 19.3143  23.2615
 19.3948  23.277
 19.4752  23.3773
 19.5558  23.5319
 19.6363  24.0529
 19.7168  27.6169
 19.7973  24.6139
 19.8777  24.864
 19.9582  23.5954
 20.0388  23.4295
 20.1193  23.5056
 20.1998  23.3739
 20.2803  23.5073
 20.3607  23.5258
 20.4413  23.4519
 20.5218  23.3839
 20.6023  23.7281
 20.6828  23.9259
 20.7632  25.7318
 20.8438  23.8168
 20.9243  23.7806
 21.0048  23.5974
 21.0853  23.6597
 21.1658  23.5775
 21.2462  23.6341
 21.3268  23.6451
 21.4073  23.6321
 21.4878  23.7037
 21.5683  23.6859
 21.6487  23.6822
 21.7293  23.7835
 21.8098  23.8487
 21.8903  24.0005
 21.9708  23.7898
 22.0512  23.9399
 22.1318  24.212
 22.2123  23.9218
 22.2928  24.1757
 22.3733  24.3132
 22.4538  24.399
 22.5343  24.523
 22.6148  24.6384
 22.6953  24.895
 22.7758  24.9478
 22.8563  25.2412
 22.9367  25.6429
 22.9943  25.958

File: Data_0118.chi
F:\20151113_APS_34IDE\\Brian\Particle1\OCV\Data_0118.tif
2-Theta Angle (Degrees)
Intensity
       2000
 0.07475  0.0000000E+00
 0.15525  0.0000000E+00
 0.23575  0.0000000E+00
 0.31625  0.0000000E+00
 0.39675  0.0000000E+00
 0.47725  0.0000000E+00
 0.55775  0.0000000E+00
 0.63825  0.0000000E+00
 0.71875  0.0000000E+00
 0.79925  0.0000000E+00
 0.87975  0.0000000E+00
 0.96025  0.0000000E+00
 1.04075  0.0000000E+00
 1.12125  0.0000000E+00
 1.20175  0.0000000E+00
 1.28225  0.0000000E+00
 1.36275  0.0000000E+00
 1.44325  0.0000000E+00
 1.52375  0.0000000E+00
 1.60425  0.0000000E+00
 1.68475  0.0000000E+00
 1.76525  0.0000000E+00
 1.84575  0.0000000E+00
 1.92625  0.0000000E+00
 2.00675  0.0000000E+00
 2.08725  0.0000000E+00
 2.16775  0.0000000E+00
 2.24825  0.0000000E+00
 2.32875  0.0000000E+00
 2.40925  0.0000000E+00
 2.48975  0.0000000E+00
 2.57025  0.0000000E+00
 2.65075  0.0000000E+00
 2.73125  0.0000000E+00
 2.81175  0.0000000E+00
 2.89225  34.3554
 2.97275  35.9269
 3.05325  36.4094
 3.13375  34.4114
 3.21425  34.3073
 3.29475  33.8811
 3.37525  34.4969
 3.45575  34.1769
 3.53625  33.5062
 3.61675  33.0126
 3.69725  33.1289
 3.77775  33.0637
 3.85825  32.1733
 3.93875  33.1495
 4.01925  32.1777
 4.09975  32.1653
 4.18025  32.0634
 4.26075  32.2525
 4.34125  31.8104
 4.42175  31.8048
 4.50225  31.9252
 4.58275  32.3455
 4.66325  32.8796
 4.74375  32.3893
 4.82425  32.1952
 4.90475  32.4626
 4.98525  32.6849
 5.06575  33.3809
 5.14625  33.6771
 5.22675  33.6686
 5.30725  33.7769
 5.38775  34.1834
 5.46825  34.2914
 5.54875  34.1252
 5.62925  34.4479
 5.70975  34.9859
 5.79025  35.2086
 5.87075  35.2723
 5.95125  38.6275
 6.03175  38.5955
 6.11225  36.4011
 6.19275  36.5818
 6.27325  37.0568
 6.35375  37.6063
 6.43425  38.1159
 6.51475  38.5463
 6.59525  38.7748
 6.67575  39.5716
 6.75625  39.9942
 6.83675  40.6986
 6.91725  41.1832
 6.99775  41.8549
 7.07825  41.9837
 7.15875  42.7898
 7.23925  43.0937
 7.31975  43.2325
 7.40025  43.786
 7.48075  43.5582
 7.56125  43.3499
 7.64175  43.7243
 7.72225  43.9883
 7.80275  43.7422
 7.88325  43.372
 7.96375  42.9055
 8.04425  42.5506
 8.12475  41.973
 8.20525  41.1767
 8.28575  40.3443
 8.36625  39.5057
 8.44675  38.4045
 8.52725  37.1385
 8.60775  35.6208
 8.68825  34.6014
 8.76875  33.2899
 8.84925  32.1313
 8.92975  31.3581
 9.01025  30.0612
 9.09075  29.2236
 9.17125  28.5405
 9.25175  27.8293
 9.33225  27.2593
 9.41275  26.8012
 9.49325  26.4328
 9.57375  25.4627
 9.65425  25.0787
 9.73475  24.889
 9.81525  24.4979
 9.89575  24.4402
 9.97625  24.2579
 10.0567  23.7915
 10.1373  23.4804
 10.2178  23.4463
 10.2982  23.2209
 10.3788  22.9313
 10.4593  22.9279
 10.5397  22.6947
 10.6203  22.7535
 10.7007  22.6401
 10.7813  22.3673
 10.8618  22.4699
 10.9422  22.4123
 11.0228  22.2143
 11.1033  22.161
 11.1837  22.1288
 11.2643  22.0904
 11.3447  21.9365
 11.4253  22.2323
 11.5058  22.1615
 11.5862  23.4887
 11.6668  22.2579
 11.7473  21.9514
 11.8277  21.984
 11.9083  22.0724
 11.9887  22.3366
 12.0693  22.3842
 12.1498  22.1542
 12.2302  22.2533
 12.3108  22.1049
 12.3913  22.2145
 12.4718  22.1942
 12.5523  22.3705
 12.6328  22.4976
 12.7133  22.4465
 12.7938  22.4994
 12.8742  22.8936
 12.9548  23.2306
 13.0353  23.6149
 13.1158  24.4514
 13.1963  25.1891
 13.2768  26.1604
 13.3573  27.1214
 13.4378  28.1101
 13.5183  28.8127
 13.5988  29.0998
 13.6793  29.2167
 13.7598  29.0262
 13.8403  28.6911
 13.9208  31.051
 14.0013  31.3703
 14.0818  27.2406
 14.1623  26.6749
 14.2428  26.1182
 14.3233  25.7921
 14.4038  25.5891
 14.4843  25.1482
 14.5648  25.1533
 14.6453  24.8502
 14.7258  24.771
 14.8063  24.6588
 14.8868  24.4714
 14.9673  24.3762
 15.0478  24.2712
 15.1283  24.3154
 15.2088  25.1069
 15.2892  24.285
 15.3698  24.2236
 15.4503  23.9961
 15.5308  24.1519
 15.6113  24.026
 15.6918  24.1323
 15.7723  24.055
 15.8528  24.1221
 15.9332  24.1314
 16.0138  24.2346
 16.0943  24.3976
 16.1748  24.5112
 16.2553  25.2843
 16.3358  24.5745
 16.4163  24.3381
 16.4967  24.2016
 16.5773  24.3683
 16.6578  24.2415
 16.7383  24.0498
 16.8188  24.0818
 16.8992  23.9979
 16.9798  23.9468
 17.0603  23.6949
 17.1408  23.7272
 17.2213  23.6337
 17.3017  23.7831
 17.3823  23.5352
 17.4628  23.5117
 17.5433  23.394
 17.6238  23.5787
 17.7042  23.5116
 17.7847  23.3344
 17.8653  23.2159
 17.9458  23.253
 18.0263  23.4402
 18.1068  23.5911
 18.1872  23.1639
 18.2678  23.2251
 18.3483  23.1561
 18.4288  23.1267
 18.5093  23.0068
 18.5897  23.1554
 18.6703  22.9854
 18.7508  23.157
 18.8313  23.1495
 18.9118  23.1577
 18.9922  23.0587
 19.0727  23.1942
 19.1533  23.2255
 19.2338  23.0381
 19.3143  23.1542
 19.3948  23.162
 19.4752  23.1121
 19.5558  23.2603
 19.6363  23.3867
 19.7168  24.2221
 19.7973  24.0152
 19.8777  24.3411
 19.9582  23.2182
 20.0388  23.2374
 20.1193  23.3133
 20.1998  23.1436
 20.2803  23.2104
 20.3607  23.218
 20.4413  23.2975
 20.5218  23.2777
 20.6023  23.44
 20.6828  23.5769
 20.7632  24.3542
 20.8438  23.7018
 20.9243  23.4797
 21.0048  23.408
 21.0853  23.4262
 21.1658  23.3818
 21.2462  23.4144
 21.3268  23.389
 21.4073  23.3989
 21.4878  23.6359
 21.5683  23.7343
 21.6487  23.6459
 21.7293  23.8129
 21.8098  23.7108
 21.8903  23.6978
 21.9708  23.7125
 22.0512  23.8933
 22.1318  23.9792
 22.2123  23.9293
 22.2928  24.1332
 22.3733  24.0728
 22.4538  24.179
 22.5343  24.3822
 22.6148  24.4053
 22.6953  24.642
 22.7758  24.7027
 22.8563  25.0262
 22.9367  25.3743
 22.9943  25.606