Folder: scimap-tests/test-data-xrd/xrd-map-34-ID-E (part 15)

File: Data_0061.chi
F:\20151113_APS_34IDE\\Brian\Particle1\OCV\Data_0061.tif
2-Theta Angle (Degrees)
Intensity
       2000
 0.07475  0.0000000E+00
 0.15525  0.0000000E+00
 0.23575  0.0000000E+00
 0.31625  0.0000000E+00
 0.39675  0.0000000E+00
 0.47725  0.0000000E+00
 0.55775  0.0000000E+00
 0.63825  0.0000000E+00
 0.71875  0.0000000E+00
 0.79925  0.0000000E+00
 0.87975  0.0000000E+00
 0.96025  0.0000000E+00
 1.04075  0.0000000E+00
 1.12125  0.0000000E+00
 1.20175  0.0000000E+00
 1.28225  0.0000000E+00
 1.36275  0.0000000E+00
 1.44325  0.0000000E+00
 1.52375  0.0000000E+00
 1.60425  0.0000000E+00
 1.68475  0.0000000E+00
 1.76525  0.0000000E+00
 1.84575  0.0000000E+00
 1.92625  0.0000000E+00
 2.00675  0.0000000E+00
 2.08725  0.0000000E+00
 2.16775  0.0000000E+00
 2.24825  0.0000000E+00
 2.32875  0.0000000E+00
 2.40925  0.0000000E+00
 2.48975  0.0000000E+00
 2.57025  0.0000000E+00
 2.65075  0.0000000E+00
 2.73125  0.0000000E+00
 2.81175  0.0000000E+00
 2.89225  34.0617
 2.97275  35.029
 3.05325  36.1306
 3.13375  35.2724
 3.21425  35.516
 3.29475  34.2983
 3.37525  34.2854
 3.45575  34.1339
 3.53625  34.0129
 3.61675  33.1453
 3.69725  32.2351
 3.77775  32.7432
 3.85825  32.3926
 3.93875  32.5039
 4.01925  32.5289
 4.09975  32.2191
 4.18025  31.8559
 4.26075  32.4656
 4.34125  32.083
 4.42175  32.5191
 4.50225  32.4251
 4.58275  32.5449
 4.66325  32.396
 4.74375  32.302
 4.82425  32.2591
 4.90475  32.571
 4.98525  32.6497
 5.06575  32.6764
 5.14625  33.2662
 5.22675  33.5254
 5.30725  34.1789
 5.38775  34.068
 5.46825  34.2358
 5.54875  34.6597
 5.62925  35.1542
 5.70975  35.2119
 5.79025  35.5139
 5.87075  36.1085
 5.95125  45.5794
 6.03175  45.0198
 6.11225  36.9121
 6.19275  36.8402
 6.27325  37.2238
 6.35375  37.6898
 6.43425  38.3117
 6.51475  38.5251
 6.59525  39.1575
 6.67575  39.6674
 6.75625  40.3469
 6.83675  41.2559
 6.91725  41.3199
 6.99775  41.8
 7.07825  42.2067
 7.15875  42.7943
 7.23925  43.0726
 7.31975  43.23
 7.40025  43.4325
 7.48075  43.5626
 7.56125  43.5525
 7.64175  44.0877
 7.72225  43.7071
 7.80275  43.626
 7.88325  43.4121
 7.96375  43.0001
 8.04425  42.6023
 8.12475  42.2215
 8.20525  41.2726
 8.28575  40.277
 8.36625  39.3958
 8.44675  38.3965
 8.52725  37.4984
 8.60775  35.9088
 8.68825  34.9281
 8.76875  33.6503
 8.84925  32.698
 8.92975  31.4936
 9.01025  30.2129
 9.09075  29.4851
 9.17125  28.6485
 9.25175  27.8632
 9.33225  27.3818
 9.41275  26.7317
 9.49325  26.2434
 9.57375  25.7435
 9.65425  25.4065
 9.73475  25.1773
 9.81525  24.8534
 9.89575  24.4398
 9.97625  24.339
 10.0567  24.1395
 10.1373  23.8461
 10.2178  23.6904
 10.2982  23.4742
 10.3788  23.2377
 10.4593  23.1383
 10.5397  23.1543
 10.6203  22.9351
 10.7007  23.0091
 10.7813  22.6879
 10.8618  22.6579
 10.9422  22.6273
 11.0228  22.4909
 11.1033  22.5466
 11.1837  22.6
 11.2643  22.4173
 11.3447  22.4944
 11.4253  22.8596
 11.5058  22.966
 11.5862  28.1359
 11.6668  23.5604
 11.7473  22.5724
 11.8277  22.7797
 11.9083  23.3529
 11.9887  30.6041
 12.0693  27.1738
 12.1498  25.6439
 12.2302  22.6663
 12.3108  22.4948
 12.3913  22.4948
 12.4718  22.7117
 12.5523  22.6136
 12.6328  22.7753
 12.7133  22.9039
 12.7938  22.9917
 12.8742  23.3492
 12.9548  23.6685
 13.0353  24.0919
 13.1158  24.7743
 13.1963  25.618
 13.2768  26.3872
 13.3573  27.6179
 13.4378  28.4056
 13.5183  29.2355
 13.5988  29.5854
 13.6793  29.7042
 13.7598  29.6412
 13.8403  29.9773
 13.9208  41.7458
 14.0013  43.7694
 14.0818  28.5099
 14.1623  27.359
 14.2428  26.6457
 14.3233  26.0015
 14.4038  25.9511
 14.4843  25.7143
 14.5648  25.5189
 14.6453  25.2269
 14.7258  25.0898
 14.8063  25.0285
 14.8868  24.8585
 14.9673  24.8434
 15.0478  24.7517
 15.1283  25.1216
 15.2088  27.5299
 15.2892  24.799
 15.3698  24.5565
 15.4503  24.4877
 15.5308  24.5363
 15.6113  24.5328
 15.6918  24.6297
 15.7723  24.6104
 15.8528  24.5962
 15.9332  24.7341
 16.0138  24.6479
 16.0943  24.6323
 16.1748  24.7593
 16.2553  25.6731
 16.3358  24.9217
 16.4163  24.8866
 16.4967  24.672
 16.5773  24.693
 16.6578  24.5252
 16.7383  24.5021
 16.8188  24.5276
 16.8992  24.3014
 16.9798  24.3108
 17.0603  24.192
 17.1408  24.0817
 17.2213  24.0947
 17.3017  24.0101
 17.3823  24.0563
 17.4628  24.047
 17.5433  23.9129
 17.6238  23.9294
 17.7042  23.8827
 17.7847  23.7352
 17.8653  23.672
 17.9458  23.7837
 18.0263  24.7839
 18.1068  26.1017
 18.1872  24.0416
 18.2678  23.6208
 18.3483  23.6132
 18.4288  23.5895
 18.5093  23.6243
 18.5897  23.7252
 18.6703  23.5789
 18.7508  23.4821
 18.8313  23.4568
 18.9118  23.5067
 18.9922  23.3942
 19.0727  23.5413
 19.1533  23.4747
 19.2338  23.5761
 19.3143  23.678
 19.3948  23.747
 19.4752  23.6737
 19.5558  23.8099
 19.6363  24.4402
 19.7168  27.1635
 19.7973  27.7381
 19.8777  28.4991
 19.9582  24.6042
 20.0388  23.8296
 20.1193  23.6721
 20.1998  23.8021
 20.2803  23.6876
 20.3607  23.6981
 20.4413  23.8597
 20.5218  23.8182
 20.6023  23.9702
 20.6828  24.4358
 20.7632  27.5523
 20.8438  24.6007
 20.9243  24.0819
 21.0048  23.9335
 21.0853  24.0123
 21.1658  23.9595
 21.2462  24.0793
 21.3268  24.019
 21.4073  24.0442
 21.4878  24.023
 21.5683  24.0063
 21.6487  24.194
 21.7293  24.2402
 21.8098  24.1867
 21.8903  24.1899
 21.9708  24.3004
 22.0512  24.2992
 22.1318  24.4138
 22.2123  24.3632
 22.2928  24.5112
 22.3733  24.6122
 22.4538  24.6549
 22.5343  24.6848
 22.6148  24.9697
 22.6953  25.1264
 22.7758  25.3601
 22.8563  25.5556
 22.9367  26.1837
 22.9943  26.4852

File: Data_0062.chi
F:\20151113_APS_34IDE\\Brian\Particle1\OCV\Data_0062.tif
2-Theta Angle (Degrees)
Intensity
       2000
 0.07475  0.0000000E+00
 0.15525  0.0000000E+00
 0.23575  0.0000000E+00
 0.31625  0.0000000E+00
 0.39675  0.0000000E+00
 0.47725  0.0000000E+00
 0.55775  0.0000000E+00
 0.63825  0.0000000E+00
 0.71875  0.0000000E+00
 0.79925  0.0000000E+00
 0.87975  0.0000000E+00
 0.96025  0.0000000E+00
 1.04075  0.0000000E+00
 1.12125  0.0000000E+00
 1.20175  0.0000000E+00
 1.28225  0.0000000E+00
 1.36275  0.0000000E+00
 1.44325  0.0000000E+00
 1.52375  0.0000000E+00
 1.60425  0.0000000E+00
 1.68475  0.0000000E+00
 1.76525  0.0000000E+00
 1.84575  0.0000000E+00
 1.92625  0.0000000E+00
 2.00675  0.0000000E+00
 2.08725  0.0000000E+00
 2.16775  0.0000000E+00
 2.24825  0.0000000E+00
 2.32875  0.0000000E+00
 2.40925  0.0000000E+00
 2.48975  0.0000000E+00
 2.57025  0.0000000E+00
 2.65075  0.0000000E+00
 2.73125  0.0000000E+00
 2.81175  0.0000000E+00
 2.89225  33.6459
 2.97275  34.4792
 3.05325  34.4983
 3.13375  34.6046
 3.21425  34.8465
 3.29475  34.7659
 3.37525  34.191
 3.45575  33.9214
 3.53625  33.5451
 3.61675  33.3075
 3.69725  33.3239
 3.77775  32.5647
 3.85825  32.2634
 3.93875  32.2778
 4.01925  31.7526
 4.09975  31.9774
 4.18025  31.5493
 4.26075  31.6848
 4.34125  31.9231
 4.42175  32.2677
 4.50225  32.2102
 4.58275  32.4852
 4.66325  32.5303
 4.74375  32.464
 4.82425  32.4424
 4.90475  32.0729
 4.98525  32.9374
 5.06575  33.4015
 5.14625  33.4914
 5.22675  33.6543
 5.30725  33.7692
 5.38775  33.9888
 5.46825  34.1347
 5.54875  34.7605
 5.62925  34.7911
 5.70975  35.1697
 5.79025  35.2722
 5.87075  36.1003
 5.95125  44.7674
 6.03175  53.0414
 6.11225  36.9637
 6.19275  36.8302
 6.27325  37.3104
 6.35375  37.7267
 6.43425  38.0952
 6.51475  38.7581
 6.59525  39.1069
 6.67575  39.6742
 6.75625  40.4089
 6.83675  41.057
 6.91725  41.6119
 6.99775  42.0553
 7.07825  42.2679
 7.15875  42.7719
 7.23925  43.4124
 7.31975  43.1943
 7.40025  43.4471
 7.48075  43.6384
 7.56125  43.7171
 7.64175  43.7274
 7.72225  43.84
 7.80275  43.5825
 7.88325  43.4022
 7.96375  43.1593
 8.04425  42.8871
 8.12475  42.2235
 8.20525  41.4161
 8.28575  40.4492
 8.36625  39.4223
 8.44675  38.3829
 8.52725  37.2434
 8.60775  36.054
 8.68825  34.8132
 8.76875  33.6034
 8.84925  32.5386
 8.92975  31.3436
 9.01025  30.3775
 9.09075  29.489
 9.17125  28.9087
 9.25175  27.9798
 9.33225  27.3592
 9.41275  26.8991
 9.49325  26.4981
 9.57375  26.056
 9.65425  25.5711
 9.73475  25.2011
 9.81525  24.9637
 9.89575  24.4055
 9.97625  24.2529
 10.0567  23.9403
 10.1373  23.9278
 10.2178  23.7046
 10.2982  23.6782
 10.3788  23.2685
 10.4593  23.1678
 10.5397  23.0218
 10.6203  22.9998
 10.7007  22.9316
 10.7813  22.8159
 10.8618  22.7009
 10.9422  22.5293
 11.0228  22.474
 11.1033  22.3842
 11.1837  22.3175
 11.2643  22.436
 11.3447  22.4531
 11.4253  22.8539
 11.5058  22.9896
 11.5862  28.9238
 11.6668  23.7324
 11.7473  22.5334
 11.8277  22.7568
 11.9083  22.6935
 11.9887  23.9705
 12.0693  24.332
 12.1498  24.25
 12.2302  22.533
 12.3108  22.6127
 12.3913  22.5937
 12.4718  22.5774
 12.5523  22.775
 12.6328  22.8465
 12.7133  22.7441
 12.7938  22.8903
 12.8742  23.2065
 12.9548  23.6598
 13.0353  24.0529
 13.1158  24.8802
 13.1963  25.8706
 13.2768  26.4405
 13.3573  27.5647
 13.4378  28.4595
 13.5183  29.0664
 13.5988  29.5092
 13.6793  29.4752
 13.7598  29.2865
 13.8403  29.2778
 13.9208  34.6211
 14.0013  32.4809
 14.0818  27.4836
 14.1623  26.8798
 14.2428  26.4368
 14.3233  26.1187
 14.4038  25.9505
 14.4843  25.7401
 14.5648  25.4526
 14.6453  25.1538
 14.7258  25.1244
 14.8063  25.0785
 14.8868  24.915
 14.9673  24.7949
 15.0478  24.8571
 15.1283  25.1282
 15.2088  27.92
 15.2892  24.8884
 15.3698  24.5685
 15.4503  24.4482
 15.5308  24.4469
 15.6113  24.3875
 15.6918  24.5325
 15.7723  24.422
 15.8528  24.5016
 15.9332  24.7126
 16.0138  24.5488
 16.0943  24.6164
 16.1748  24.7314
 16.2553  25.6664
 16.3358  25.0008
 16.4163  24.5871
 16.4967  24.647
 16.5773  24.5109
 16.6578  24.4891
 16.7383  24.3944
 16.8188  24.4219
 16.8992  24.3067
 16.9798  24.3156
 17.0603  24.2036
 17.1408  24.1607
 17.2213  24.0242
 17.3017  24.146
 17.3823  23.9167
 17.4628  24.0165
 17.5433  23.8605
 17.6238  23.8675
 17.7042  23.8012
 17.7847  23.7138
 17.8653  23.8271
 17.9458  23.9852
 18.0263  24.7767
 18.1068  26.2338
 18.1872  24.0319
 18.2678  23.6433
 18.3483  23.6944
 18.4288  23.5813
 18.5093  23.7189
 18.5897  23.5853
 18.6703  23.4497
 18.7508  23.4665
 18.8313  23.5355
 18.9118  23.5617
 18.9922  23.4997
 19.0727  23.5274
 19.1533  23.5527
 19.2338  23.5264
 19.3143  23.5701
 19.3948  23.6954
 19.4752  23.6718
 19.5558  23.9277
 19.6363  24.5707
 19.7168  28.4576
 19.7973  25.8604
 19.8777  28.4701
 19.9582  24.1865
 20.0388  23.9478
 20.1193  23.7936
 20.1998  23.8646
 20.2803  23.7223
 20.3607  23.8272
 20.4413  23.8942
 20.5218  23.7959
 20.6023  23.8822
 20.6828  24.436
 20.7632  26.7817
 20.8438  24.337
 20.9243  24.1056
 21.0048  23.976
 21.0853  24.0426
 21.1658  23.9191
 21.2462  23.9522
 21.3268  23.8281
 21.4073  23.8258
 21.4878  23.8546
 21.5683  23.9892
 21.6487  24.0464
 21.7293  24.1281
 21.8098  24.091
 21.8903  24.3829
 21.9708  24.0655
 22.0512  24.2506
 22.1318  24.3534
 22.2123  24.3759
 22.2928  24.5344
 22.3733  24.4854
 22.4538  24.666
 22.5343  24.8564
 22.6148  24.954
 22.6953  25.1561
 22.7758  25.3616
 22.8563  25.6121
 22.9367  25.9913
 22.9943  26.6611

File: Data_0063.chi
F:\20151113_APS_34IDE\\Brian\Particle1\OCV\Data_0063.tif
2-Theta Angle (Degrees)
Intensity
       2000
 0.07475  0.0000000E+00
 0.15525  0.0000000E+00
 0.23575  0.0000000E+00
 0.31625  0.0000000E+00
 0.39675  0.0000000E+00
 0.47725  0.0000000E+00
 0.55775  0.0000000E+00
 0.63825  0.0000000E+00
 0.71875  0.0000000E+00
 0.79925  0.0000000E+00
 0.87975  0.0000000E+00
 0.96025  0.0000000E+00
 1.04075  0.0000000E+00
 1.12125  0.0000000E+00
 1.20175  0.0000000E+00
 1.28225  0.0000000E+00
 1.36275  0.0000000E+00
 1.44325  0.0000000E+00
 1.52375  0.0000000E+00
 1.60425  0.0000000E+00
 1.68475  0.0000000E+00
 1.76525  0.0000000E+00
 1.84575  0.0000000E+00
 1.92625  0.0000000E+00
 2.00675  0.0000000E+00
 2.08725  0.0000000E+00
 2.16775  0.0000000E+00
 2.24825  0.0000000E+00
 2.32875  0.0000000E+00
 2.40925  0.0000000E+00
 2.48975  0.0000000E+00
 2.57025  0.0000000E+00
 2.65075  0.0000000E+00
 2.73125  0.0000000E+00
 2.81175  0.0000000E+00
 2.89225  35.3192
 2.97275  35.3789
 3.05325  35.3346
 3.13375  35.7318
 3.21425  35.4386
 3.29475  34.0207
 3.37525  34.7656
 3.45575  34.0027
 3.53625  33.5699
 3.61675  32.6953
 3.69725  32.9235
 3.77775  32.4695
 3.85825  32.8596
 3.93875  32.277
 4.01925  32.5477
 4.09975  32.6518
 4.18025  31.9755
 4.26075  31.7829
 4.34125  32.05
 4.42175  31.9151
 4.50225  32.0097
 4.58275  32.7357
 4.66325  32.6861
 4.74375  32.2864
 4.82425  32.695
 4.90475  32.4519
 4.98525  32.7162
 5.06575  32.8201
 5.14625  33.6628
 5.22675  35.4239
 5.30725  34.0748
 5.38775  34.1524
 5.46825  34.2562
 5.54875  34.3549
 5.62925  34.8494
 5.70975  35.312
 5.79025  35.8045
 5.87075  36.1191
 5.95125  40.3615
 6.03175  40.1017
 6.11225  36.6452
 6.19275  36.5076
 6.27325  37.2772
 6.35375  37.7557
 6.43425  38.1348
 6.51475  38.7256
 6.59525  38.9613
 6.67575  39.6372
 6.75625  40.4734
 6.83675  41.0948
 6.91725  41.587
 6.99775  41.8015
 7.07825  42.3601
 7.15875  42.5822
 7.23925  43.0887
 7.31975  43.4735
 7.40025  43.6651
 7.48075  43.6169
 7.56125  44.0399
 7.64175  44.1023
 7.72225  43.9626
 7.80275  44.0907
 7.88325  43.6521
 7.96375  43.0264
 8.04425  42.8059
 8.12475  42.2361
 8.20525  41.4567
 8.28575  40.7679
 8.36625  39.6186
 8.44675  38.6108
 8.52725  37.3914
 8.60775  36.1036
 8.68825  34.9272
 8.76875  33.6017
 8.84925  32.7152
 8.92975  31.6046
 9.01025  30.634
 9.09075  29.7637
 9.17125  28.9996
 9.25175  28.1625
 9.33225  27.4274
 9.41275  26.9214
 9.49325  26.4137
 9.57375  25.8402
 9.65425  25.6099
 9.73475  25.3407
 9.81525  25.0792
 9.89575  24.6273
 9.97625  24.2417
 10.0567  24.194
 10.1373  23.9781
 10.2178  23.7944
 10.2982  23.6275
 10.3788  23.2998
 10.4593  23.2586
 10.5397  23.065
 10.6203  23.081
 10.7007  22.9653
 10.7813  22.7648
 10.8618  22.7797
 10.9422  22.6521
 11.0228  22.487
 11.1033  22.7097
 11.1837  22.502
 11.2643  22.3149
 11.3447  22.4319
 11.4253  22.8951
 11.5058  23.0302
 11.5862  29.0479
 11.6668  24.2478
 11.7473  22.4335
 11.8277  22.4872
 11.9083  22.5683
 11.9887  23.2446
 12.0693  26.0925
 12.1498  24.6134
 12.2302  22.5568
 12.3108  22.6085
 12.3913  22.6379
 12.4718  22.631
 12.5523  22.6171
 12.6328  23.0857
 12.7133  23.0176
 12.7938  23.2117
 12.8742  23.517
 12.9548  23.7447
 13.0353  24.1637
 13.1158  24.8765
 13.1963  25.5539
 13.2768  26.4783
 13.3573  27.5974
 13.4378  28.5239
 13.5183  29.2117
 13.5988  29.7193
 13.6793  29.8556
 13.7598  29.5275
 13.8403  29.5154
 13.9208  35.8646
 14.0013  36.0536
 14.0818  28.0574
 14.1623  27.2421
 14.2428  26.6283
 14.3233  26.1996
 14.4038  26.1133
 14.4843  25.756
 14.5648  25.6342
 14.6453  25.512
 14.7258  25.3229
 14.8063  24.9733
 14.8868  24.8136
 14.9673  24.8141
 15.0478  24.8652
 15.1283  25.2697
 15.2088  27.9655
 15.2892  24.8607
 15.3698  24.6037
 15.4503  24.4826
 15.5308  24.5364
 15.6113  24.5668
 15.6918  24.7003
 15.7723  24.6545
 15.8528  24.457
 15.9332  24.7428
 16.0138  24.599
 16.0943  24.6205
 16.1748  24.7508
 16.2553  25.4421
 16.3358  24.9429
 16.4163  24.5876
 16.4967  24.6404
 16.5773  24.7961
 16.6578  24.464
 16.7383  24.6004
 16.8188  24.6223
 16.8992  24.5044
 16.9798  24.2785
 17.0603  24.3026
 17.1408  24.1827
 17.2213  24.2155
 17.3017  24.0705
 17.3823  23.9937
 17.4628  23.9318
 17.5433  23.9237
 17.6238  24.025
 17.7042  23.858
 17.7847  23.8555
 17.8653  23.8122
 17.9458  24.0666
 18.0263  25.6192
 18.1068  25.4493
 18.1872  24.2295
 18.2678  23.6978
 18.3483  23.7741
 18.4288  23.7912
 18.5093  23.6673
 18.5897  23.6967
 18.6703  23.5137
 18.7508  23.5902
 18.8313  23.6097
 18.9118  23.5542
 18.9922  23.5
 19.0727  23.6043
 19.1533  23.5971
 19.2338  23.6196
 19.3143  23.697
 19.3948  23.8524
 19.4752  23.9652
 19.5558  24.3254
 19.6363  26.2123
 19.7168  35.7039
 19.7973  26.8971
 19.8777  30.7306
 19.9582  24.5833
 20.0388  23.987
 20.1193  23.8874
 20.1998  23.8257
 20.2803  23.84
 20.3607  23.6918
 20.4413  23.8741
 20.5218  23.7406
 20.6023  24.1281
 20.6828  24.4837
 20.7632  26.727
 20.8438  24.3131
 20.9243  24.1531
 21.0048  24.0613
 21.0853  23.9845
 21.1658  23.9839
 21.2462  23.9262
 21.3268  23.9204
 21.4073  23.9357
 21.4878  23.9657
 21.5683  24.0087
 21.6487  24.045
 21.7293  24.2678
 21.8098  24.2103
 21.8903  24.1692
 21.9708  24.3292
 22.0512  24.3832
 22.1318  24.3763
 22.2123  24.3566
 22.2928  24.5021
 22.3733  24.625
 22.4538  24.7334
 22.5343  24.8211
 22.6148  24.9091
 22.6953  25.2328
 22.7758  25.3499
 22.8563  25.7009
 22.9367  26.1503
 22.9943  26.7362

File: Data_0064.chi
F:\20151113_APS_34IDE\\Brian\Particle1\OCV\Data_0064.tif
2-Theta Angle (Degrees)
Intensity
       2000
 0.07475  0.0000000E+00
 0.15525  0.0000000E+00
 0.23575  0.0000000E+00
 0.31625  0.0000000E+00
 0.39675  0.0000000E+00
 0.47725  0.0000000E+00
 0.55775  0.0000000E+00
 0.63825  0.0000000E+00
 0.71875  0.0000000E+00
 0.79925  0.0000000E+00
 0.87975  0.0000000E+00
 0.96025  0.0000000E+00
 1.04075  0.0000000E+00
 1.12125  0.0000000E+00
 1.20175  0.0000000E+00
 1.28225  0.0000000E+00
 1.36275  0.0000000E+00
 1.44325  0.0000000E+00
 1.52375  0.0000000E+00
 1.60425  0.0000000E+00
 1.68475  0.0000000E+00
 1.76525  0.0000000E+00
 1.84575  0.0000000E+00
 1.92625  0.0000000E+00
 2.00675  0.0000000E+00
 2.08725  0.0000000E+00
 2.16775  0.0000000E+00
 2.24825  0.0000000E+00
 2.32875  0.0000000E+00
 2.40925  0.0000000E+00
 2.48975  0.0000000E+00
 2.57025  0.0000000E+00
 2.65075  0.0000000E+00
 2.73125  0.0000000E+00
 2.81175  0.0000000E+00
 2.89225  36.1241
 2.97275  35.1709
 3.05325  36.0207
 3.13375  35.2966
 3.21425  34.3128
 3.29475  33.768
 3.37525  33.2251
 3.45575  33.5693
 3.53625  33.4724
 3.61675  32.9771
 3.69725  32.6223
 3.77775  32.9088
 3.85825  31.9073
 3.93875  31.8606
 4.01925  32.3457
 4.09975  31.4872
 4.18025  31.611
 4.26075  31.8238
 4.34125  31.7843
 4.42175  32.5267
 4.50225  32.1682
 4.58275  31.543
 4.66325  32.2704
 4.74375  31.855
 4.82425  32.0027
 4.90475  32.2114
 4.98525  32.3637
 5.06575  32.4729
 5.14625  33.1907
 5.22675  33.4467
 5.30725  33.4455
 5.38775  33.6962
 5.46825  34.1223
 5.54875  34.2556
 5.62925  34.3548
 5.70975  34.6671
 5.79025  34.8461
 5.87075  35.69
 5.95125  40.381
 6.03175  40.6972
 6.11225  36.1111
 6.19275  36.4295
 6.27325  36.8754
 6.35375  37.2106
 6.43425  37.4761
 6.51475  38.2882
 6.59525  39.0393
 6.67575  39.543
 6.75625  39.9939
 6.83675  40.5829
 6.91725  40.9388
 6.99775  41.3335
 7.07825  41.8481
 7.15875  42.2484
 7.23925  43.014
 7.31975  42.9458
 7.40025  43.3484
 7.48075  43.6675
 7.56125  43.7489
 7.64175  43.399
 7.72225  43.3067
 7.80275  43.5518
 7.88325  43.1936
 7.96375  43.0609
 8.04425  42.5502
 8.12475  42.0045
 8.20525  41.3064
 8.28575  40.4366
 8.36625  39.3511
 8.44675  37.9363
 8.52725  37.0529
 8.60775  35.5309
 8.68825  34.3921
 8.76875  33.2758
 8.84925  32.406
 8.92975  31.2126
 9.01025  30.2985
 9.09075  29.3051
 9.17125  28.5425
 9.25175  27.8494
 9.33225  27.0897
 9.41275  26.6149
 9.49325  26.0111
 9.57375  25.4713
 9.65425  25.2775
 9.73475  24.8204
 9.81525  24.4383
 9.89575  24.2161
 9.97625  24.0119
 10.0567  23.6852
 10.1373  23.7907
 10.2178  23.3015
 10.2982  23.307
 10.3788  23.1277
 10.4593  22.9797
 10.5397  23.0775
 10.6203  22.7118
 10.7007  22.5509
 10.7813  22.4423
 10.8618  22.471
 10.9422  22.4701
 11.0228  22.4404
 11.1033  22.576
 11.1837  22.284
 11.2643  22.1587
 11.3447  22.3207
 11.4253  22.5724
 11.5058  23.0119
 11.5862  30.4797
 11.6668  24.1682
 11.7473  22.2964
 11.8277  22.2521
 11.9083  22.3869
 11.9887  24.0191
 12.0693  23.3236
 12.1498  23.1143
 12.2302  22.2879
 12.3108  22.2075
 12.3913  22.179
 12.4718  22.5282
 12.5523  22.3556
 12.6328  22.4967
 12.7133  22.6389
 12.7938  22.7392
 12.8742  23.0904
 12.9548  23.4393
 13.0353  23.9815
 13.1158  24.4372
 13.1963  25.1814
 13.2768  26.4659
 13.3573  27.3509
 13.4378  28.105
 13.5183  28.882
 13.5988  29.3048
 13.6793  29.3423
 13.7598  29.0796
 13.8403  28.7883
 13.9208  32.97
 14.0013  30.2957
 14.0818  27.4056
 14.1623  26.7697
 14.2428  26.1124
 14.3233  25.9392
 14.4038  25.7011
 14.4843  25.1875
 14.5648  25.2247
 14.6453  25.0296
 14.7258  25.014
 14.8063  24.8839
 14.8868  24.6172
 14.9673  24.4758
 15.0478  24.5367
 15.1283  24.8862
 15.2088  27.2281
 15.2892  24.5653
 15.3698  24.4232
 15.4503  24.2014
 15.5308  24.1667
 15.6113  24.1463
 15.6918  24.24
 15.7723  24.2237
 15.8528  24.2244
 15.9332  24.2572
 16.0138  24.4426
 16.0943  24.4784
 16.1748  24.4842
 16.2553  24.958
 16.3358  24.4623
 16.4163  24.3852
 16.4967  24.3491
 16.5773  24.2421
 16.6578  24.1003
 16.7383  24.1983
 16.8188  24.1177
 16.8992  24.1465
 16.9798  23.8857
 17.0603  24.0184
 17.1408  23.9434
 17.2213  23.9707
 17.3017  23.8765
 17.3823  23.8514
 17.4628  23.633
 17.5433  23.6216
 17.6238  23.6025
 17.7042  23.5078
 17.7847  23.5725
 17.8653  23.5146
 17.9458  23.5987
 18.0263  24.2053
 18.1068  25.6471
 18.1872  24.0172
 18.2678  23.4487
 18.3483  23.4493
 18.4288  23.3835
 18.5093  23.1445
 18.5897  23.2962
 18.6703  23.1541
 18.7508  23.0912
 18.8313  23.1878
 18.9118  23.1974
 18.9922  23.0918
 19.0727  23.3383
 19.1533  23.217
 19.2338  23.1758
 19.3143  23.2043
 19.3948  23.2825
 19.4752  23.3393
 19.5558  23.4747
 19.6363  23.9366
 19.7168  25.7386
 19.7973  24.9999
 19.8777  25.4052
 19.9582  23.7323
 20.0388  23.5292
 20.1193  23.4376
 20.1998  23.4663
 20.2803  23.4788
 20.3607  23.6312
 20.4413  23.6263
 20.5218  23.4921
 20.6023  23.7499
 20.6828  24.1522
 20.7632  25.886
 20.8438  23.9992
 20.9243  23.7157
 21.0048  23.5719
 21.0853  23.6097
 21.1658  23.5508
 21.2462  23.6629
 21.3268  23.6445
 21.4073  23.6415
 21.4878  23.6995
 21.5683  23.7473
 21.6487  23.7487
 21.7293  23.8033
 21.8098  23.8845
 21.8903  23.8911
 21.9708  23.9194
 22.0512  24.1032
 22.1318  24.0526
 22.2123  24.0672
 22.2928  24.1771
 22.3733  24.1582
 22.4538  24.4539
 22.5343  24.5074
 22.6148  24.6802
 22.6953  24.7783
 22.7758  25.0166
 22.8563  25.2946
 22.9367  25.5978
 22.9943  26.0203