Folder: scimap-tests/test-data-xrd/xrd-map-34-ID-E (part 31)

File: Data_0127.chi
F:\20151113_APS_34IDE\\Brian\Particle1\OCV\Data_0127.tif
2-Theta Angle (Degrees)
Intensity
       2000
 0.07475  0.0000000E+00
 0.15525  0.0000000E+00
 0.23575  0.0000000E+00
 0.31625  0.0000000E+00
 0.39675  0.0000000E+00
 0.47725  0.0000000E+00
 0.55775  0.0000000E+00
 0.63825  0.0000000E+00
 0.71875  0.0000000E+00
 0.79925  0.0000000E+00
 0.87975  0.0000000E+00
 0.96025  0.0000000E+00
 1.04075  0.0000000E+00
 1.12125  0.0000000E+00
 1.20175  0.0000000E+00
 1.28225  0.0000000E+00
 1.36275  0.0000000E+00
 1.44325  0.0000000E+00
 1.52375  0.0000000E+00
 1.60425  0.0000000E+00
 1.68475  0.0000000E+00
 1.76525  0.0000000E+00
 1.84575  0.0000000E+00
 1.92625  0.0000000E+00
 2.00675  0.0000000E+00
 2.08725  0.0000000E+00
 2.16775  0.0000000E+00
 2.24825  0.0000000E+00
 2.32875  0.0000000E+00
 2.40925  0.0000000E+00
 2.48975  0.0000000E+00
 2.57025  0.0000000E+00
 2.65075  0.0000000E+00
 2.73125  0.0000000E+00
 2.81175  0.0000000E+00
 2.89225  34.9487
 2.97275  34.7125
 3.05325  35.364
 3.13375  34.9044
 3.21425  35.6249
 3.29475  34.9884
 3.37525  34.1922
 3.45575  34.2464
 3.53625  33.4151
 3.61675  33.2828
 3.69725  32.9118
 3.77775  32.7504
 3.85825  32.5953
 3.93875  32.0319
 4.01925  32.0759
 4.09975  32.1737
 4.18025  31.5853
 4.26075  32.0306
 4.34125  31.6709
 4.42175  32.3093
 4.50225  32.4521
 4.58275  32.3956
 4.66325  33.1108
 4.74375  32.6563
 4.82425  32.4863
 4.90475  32.7008
 4.98525  32.8079
 5.06575  33.4392
 5.14625  33.7144
 5.22675  33.5681
 5.30725  34.0996
 5.38775  34.2305
 5.46825  34.4939
 5.54875  34.885
 5.62925  34.9367
 5.70975  35.2744
 5.79025  35.3116
 5.87075  35.8971
 5.95125  38.5955
 6.03175  38.1663
 6.11225  36.5975
 6.19275  36.5982
 6.27325  37.3659
 6.35375  37.7771
 6.43425  39.2639
 6.51475  39.7427
 6.59525  39.7538
 6.67575  39.9163
 6.75625  40.4384
 6.83675  41.2383
 6.91725  41.6899
 6.99775  42.291
 7.07825  42.7468
 7.15875  42.9196
 7.23925  43.4101
 7.31975  43.4627
 7.40025  43.9136
 7.48075  44.0103
 7.56125  44.0294
 7.64175  44.0286
 7.72225  44.0656
 7.80275  44.0652
 7.88325  43.7252
 7.96375  43.3365
 8.04425  43.0118
 8.12475  42.6487
 8.20525  41.9023
 8.28575  40.7869
 8.36625  40.0099
 8.44675  38.7636
 8.52725  37.6593
 8.60775  36.4309
 8.68825  35.0458
 8.76875  34.0216
 8.84925  32.5361
 8.92975  31.6769
 9.01025  30.6278
 9.09075  29.7885
 9.17125  28.9512
 9.25175  27.9521
 9.33225  27.3506
 9.41275  26.7974
 9.49325  26.3311
 9.57375  25.7898
 9.65425  25.5297
 9.73475  25.1677
 9.81525  24.7259
 9.89575  24.3474
 9.97625  24.3526
 10.0567  24.1588
 10.1373  23.922
 10.2178  23.5068
 10.2982  23.409
 10.3788  23.1831
 10.4593  22.9349
 10.5397  22.9243
 10.6203  22.8889
 10.7007  22.8105
 10.7813  22.6392
 10.8618  22.6375
 10.9422  22.7069
 11.0228  22.532
 11.1033  22.3653
 11.1837  22.3318
 11.2643  22.348
 11.3447  22.3321
 11.4253  22.5569
 11.5058  22.7027
 11.5862  24.5908
 11.6668  22.6458
 11.7473  22.2998
 11.8277  22.379
 11.9083  22.3423
 11.9887  23.2906
 12.0693  23.1826
 12.1498  22.7346
 12.2302  22.4495
 12.3108  22.3686
 12.3913  22.4036
 12.4718  22.5051
 12.5523  22.6174
 12.6328  22.6899
 12.7133  22.7004
 12.7938  22.9678
 12.8742  23.3758
 12.9548  23.4906
 13.0353  23.9753
 13.1158  24.7207
 13.1963  25.3794
 13.2768  26.3727
 13.3573  27.3416
 13.4378  28.4106
 13.5183  29.2422
 13.5988  29.361
 13.6793  29.3939
 13.7598  29.2276
 13.8403  29.0099
 13.9208  31.5158
 14.0013  30.076
 14.0818  27.2849
 14.1623  26.7255
 14.2428  26.4587
 14.3233  26.0055
 14.4038  25.7685
 14.4843  25.4306
 14.5648  25.2631
 14.6453  25.1182
 14.7258  25.0771
 14.8063  24.916
 14.8868  24.6493
 14.9673  24.6445
 15.0478  24.6683
 15.1283  24.8859
 15.2088  25.2728
 15.2892  24.5958
 15.3698  24.3047
 15.4503  24.2995
 15.5308  24.3289
 15.6113  24.2731
 15.6918  24.395
 15.7723  24.4384
 15.8528  24.3673
 15.9332  24.3628
 16.0138  24.3917
 16.0943  24.6079
 16.1748  24.6708
 16.2553  25.9221
 16.3358  24.8457
 16.4163  24.491
 16.4967  24.478
 16.5773  24.3379
 16.6578  24.4014
 16.7383  24.3017
 16.8188  24.2121
 16.8992  24.1137
 16.9798  23.971
 17.0603  24.0179
 17.1408  24.0258
 17.2213  23.9035
 17.3017  23.8194
 17.3823  23.7549
 17.4628  23.6822
 17.5433  23.7547
 17.6238  23.6223
 17.7042  23.662
 17.7847  23.6664
 17.8653  23.613
 17.9458  23.5869
 18.0263  23.7346
 18.1068  24.4017
 18.1872  23.5843
 18.2678  23.4501
 18.3483  23.4383
 18.4288  23.4627
 18.5093  23.3368
 18.5897  23.2813
 18.6703  23.078
 18.7508  23.2015
 18.8313  23.2236
 18.9118  23.2626
 18.9922  23.1194
 19.0727  23.4246
 19.1533  23.2869
 19.2338  23.3447
 19.3143  23.3584
 19.3948  23.3313
 19.4752  23.3328
 19.5558  23.4446
 19.6363  23.6624
 19.7168  24.8687
 19.7973  24.3945
 19.8777  24.6852
 19.9582  23.6014
 20.0388  23.4025
 20.1193  23.5399
 20.1998  23.4829
 20.2803  23.4454
 20.3607  23.5071
 20.4413  23.6915
 20.5218  23.4491
 20.6023  23.6299
 20.6828  23.7591
 20.7632  24.56
 20.8438  23.7532
 20.9243  23.7824
 21.0048  23.7536
 21.0853  23.706
 21.1658  23.6429
 21.2462  23.6625
 21.3268  23.7394
 21.4073  23.6156
 21.4878  23.6945
 21.5683  23.7793
 21.6487  23.909
 21.7293  23.8924
 21.8098  23.9668
 21.8903  24.5539
 21.9708  23.91
 22.0512  23.9475
 22.1318  24.0275
 22.2123  24.1061
 22.2928  24.1641
 22.3733  24.3837
 22.4538  24.5113
 22.5343  24.4418
 22.6148  24.5783
 22.6953  24.8161
 22.7758  25.0141
 22.8563  25.1762
 22.9367  25.6308
 22.9943  26.0395

File: Data_0128.chi
F:\20151113_APS_34IDE\\Brian\Particle1\OCV\Data_0128.tif
2-Theta Angle (Degrees)
Intensity
       2000
 0.07475  0.0000000E+00
 0.15525  0.0000000E+00
 0.23575  0.0000000E+00
 0.31625  0.0000000E+00
 0.39675  0.0000000E+00
 0.47725  0.0000000E+00
 0.55775  0.0000000E+00
 0.63825  0.0000000E+00
 0.71875  0.0000000E+00
 0.79925  0.0000000E+00
 0.87975  0.0000000E+00
 0.96025  0.0000000E+00
 1.04075  0.0000000E+00
 1.12125  0.0000000E+00
 1.20175  0.0000000E+00
 1.28225  0.0000000E+00
 1.36275  0.0000000E+00
 1.44325  0.0000000E+00
 1.52375  0.0000000E+00
 1.60425  0.0000000E+00
 1.68475  0.0000000E+00
 1.76525  0.0000000E+00
 1.84575  0.0000000E+00
 1.92625  0.0000000E+00
 2.00675  0.0000000E+00
 2.08725  0.0000000E+00
 2.16775  0.0000000E+00
 2.24825  0.0000000E+00
 2.32875  0.0000000E+00
 2.40925  0.0000000E+00
 2.48975  0.0000000E+00
 2.57025  0.0000000E+00
 2.65075  0.0000000E+00
 2.73125  0.0000000E+00
 2.81175  0.0000000E+00
 2.89225  34.1847
 2.97275  35.0976
 3.05325  35.3728
 3.13375  34.5961
 3.21425  35.2028
 3.29475  34.3999
 3.37525  33.9431
 3.45575  34.4304
 3.53625  33.5598
 3.61675  32.2214
 3.69725  32.4333
 3.77775  33.388
 3.85825  32.7246
 3.93875  32.3959
 4.01925  32.4511
 4.09975  32.2834
 4.18025  31.9677
 4.26075  32.1633
 4.34125  32.2234
 4.42175  32.228
 4.50225  32.0223
 4.58275  32.9295
 4.66325  32.3698
 4.74375  32.3772
 4.82425  32.5939
 4.90475  32.5947
 4.98525  32.7992
 5.06575  33.0798
 5.14625  33.6129
 5.22675  33.3655
 5.30725  34.0751
 5.38775  34.0888
 5.46825  34.2437
 5.54875  34.7652
 5.62925  35.1008
 5.70975  35.5622
 5.79025  35.5696
 5.87075  35.7692
 5.95125  38.752
 6.03175  39.0005
 6.11225  36.5137
 6.19275  37.0635
 6.27325  37.4943
 6.35375  37.7435
 6.43425  38.3362
 6.51475  39.0196
 6.59525  39.2827
 6.67575  40.1474
 6.75625  40.6596
 6.83675  41.1503
 6.91725  41.5417
 6.99775  42.2333
 7.07825  42.1679
 7.15875  42.8323
 7.23925  43.3786
 7.31975  43.6295
 7.40025  43.8433
 7.48075  44.1353
 7.56125  44.4278
 7.64175  44.5214
 7.72225  44.4074
 7.80275  44.1708
 7.88325  44.124
 7.96375  43.8841
 8.04425  43.3025
 8.12475  42.765
 8.20525  42.094
 8.28575  41.1799
 8.36625  40.2481
 8.44675  38.9327
 8.52725  37.7006
 8.60775  36.5406
 8.68825  35.1823
 8.76875  33.9742
 8.84925  32.7423
 8.92975  31.7174
 9.01025  30.3626
 9.09075  29.8266
 9.17125  28.9675
 9.25175  28.1417
 9.33225  27.2549
 9.41275  26.89
 9.49325  26.4648
 9.57375  25.8457
 9.65425  25.5983
 9.73475  25.2914
 9.81525  24.8529
 9.89575  24.5959
 9.97625  24.3718
 10.0567  24.1708
 10.1373  23.7355
 10.2178  23.787
 10.2982  23.6415
 10.3788  23.3388
 10.4593  23.2971
 10.5397  23.0648
 10.6203  22.8525
 10.7007  22.8185
 10.7813  22.8534
 10.8618  22.6696
 10.9422  22.6295
 11.0228  22.5439
 11.1033  22.4329
 11.1837  22.3898
 11.2643  22.2742
 11.3447  22.4982
 11.4253  22.6021
 11.5058  22.4343
 11.5862  23.2937
 11.6668  22.5406
 11.7473  22.304
 11.8277  22.3
 11.9083  22.3737
 11.9887  23.1577
 12.0693  22.8645
 12.1498  22.7268
 12.2302  22.3381
 12.3108  22.4377
 12.3913  22.2768
 12.4718  22.3539
 12.5523  22.6429
 12.6328  22.6487
 12.7133  22.7475
 12.7938  23.1175
 12.8742  23.4253
 12.9548  23.5726
 13.0353  24.0124
 13.1158  24.7697
 13.1963  25.4849
 13.2768  26.5759
 13.3573  27.6398
 13.4378  28.4812
 13.5183  29.1313
 13.5988  29.4779
 13.6793  29.4986
 13.7598  29.1573
 13.8403  28.9166
 13.9208  30.195
 14.0013  29.8071
 14.0818  27.2988
 14.1623  26.8704
 14.2428  26.4193
 14.3233  25.9526
 14.4038  25.7792
 14.4843  25.6237
 14.5648  25.5058
 14.6453  25.2861
 14.7258  25.0558
 14.8063  24.8816
 14.8868  24.7031
 14.9673  24.7237
 15.0478  24.7578
 15.1283  24.616
 15.2088  24.9819
 15.2892  24.4626
 15.3698  24.2936
 15.4503  24.2754
 15.5308  24.3313
 15.6113  24.3105
 15.6918  24.3082
 15.7723  24.3502
 15.8528  24.4202
 15.9332  24.3797
 16.0138  24.572
 16.0943  24.5789
 16.1748  24.7424
 16.2553  25.6862
 16.3358  24.6765
 16.4163  24.4573
 16.4967  24.5498
 16.5773  24.4998
 16.6578  24.4277
 16.7383  24.3859
 16.8188  24.3732
 16.8992  24.0809
 16.9798  24.1973
 17.0603  24.018
 17.1408  24.0448
 17.2213  24.1092
 17.3017  23.9442
 17.3823  23.8612
 17.4628  23.8953
 17.5433  23.7999
 17.6238  23.6803
 17.7042  23.614
 17.7847  23.4506
 17.8653  23.607
 17.9458  23.4979
 18.0263  23.5649
 18.1068  23.8188
 18.1872  23.4445
 18.2678  23.4233
 18.3483  23.4337
 18.4288  23.4531
 18.5093  23.4892
 18.5897  23.4021
 18.6703  23.2719
 18.7508  23.3287
 18.8313  23.2854
 18.9118  23.2818
 18.9922  23.2851
 19.0727  23.2814
 19.1533  23.3333
 19.2338  23.2794
 19.3143  23.2293
 19.3948  23.1992
 19.4752  23.3576
 19.5558  23.3264
 19.6363  23.563
 19.7168  24.3462
 19.7973  23.9162
 19.8777  24.1172
 19.9582  23.542
 20.0388  23.4203
 20.1193  23.6075
 20.1998  23.3811
 20.2803  23.4804
 20.3607  23.3516
 20.4413  23.4853
 20.5218  23.4381
 20.6023  23.6202
 20.6828  23.7956
 20.7632  24.3929
 20.8438  23.6724
 20.9243  23.7278
 21.0048  23.6919
 21.0853  23.6489
 21.1658  23.7085
 21.2462  23.7542
 21.3268  23.5722
 21.4073  23.6528
 21.4878  23.7079
 21.5683  23.7549
 21.6487  23.7034
 21.7293  23.8076
 21.8098  23.9652
 21.8903  23.999
 21.9708  23.9693
 22.0512  24.0103
 22.1318  24.2159
 22.2123  24.1405
 22.2928  24.208
 22.3733  24.3704
 22.4538  24.425
 22.5343  24.5556
 22.6148  24.6756
 22.6953  24.8501
 22.7758  25.0527
 22.8563  25.194
 22.9367  25.6145
 22.9943  25.9961

File: Data_0129.chi
F:\20151113_APS_34IDE\\Brian\Particle1\OCV\Data_0129.tif
2-Theta Angle (Degrees)
Intensity
       2000
 0.07475  0.0000000E+00
 0.15525  0.0000000E+00
 0.23575  0.0000000E+00
 0.31625  0.0000000E+00
 0.39675  0.0000000E+00
 0.47725  0.0000000E+00
 0.55775  0.0000000E+00
 0.63825  0.0000000E+00
 0.71875  0.0000000E+00
 0.79925  0.0000000E+00
 0.87975  0.0000000E+00
 0.96025  0.0000000E+00
 1.04075  0.0000000E+00
 1.12125  0.0000000E+00
 1.20175  0.0000000E+00
 1.28225  0.0000000E+00
 1.36275  0.0000000E+00
 1.44325  0.0000000E+00
 1.52375  0.0000000E+00
 1.60425  0.0000000E+00
 1.68475  0.0000000E+00
 1.76525  0.0000000E+00
 1.84575  0.0000000E+00
 1.92625  0.0000000E+00
 2.00675  0.0000000E+00
 2.08725  0.0000000E+00
 2.16775  0.0000000E+00
 2.24825  0.0000000E+00
 2.32875  0.0000000E+00
 2.40925  0.0000000E+00
 2.48975  0.0000000E+00
 2.57025  0.0000000E+00
 2.65075  0.0000000E+00
 2.73125  0.0000000E+00
 2.81175  0.0000000E+00
 2.89225  35.2924
 2.97275  35.9783
 3.05325  36.3342
 3.13375  35.5115
 3.21425  35.9931
 3.29475  33.5698
 3.37525  34.7735
 3.45575  34.4544
 3.53625  34.3933
 3.61675  33.649
 3.69725  33.2617
 3.77775  33.212
 3.85825  32.9174
 3.93875  32.7033
 4.01925  32.9426
 4.09975  32.5761
 4.18025  32.2304
 4.26075  32.2524
 4.34125  32.0836
 4.42175  32.4068
 4.50225  32.5259
 4.58275  32.3616
 4.66325  33.2743
 4.74375  32.5706
 4.82425  32.566
 4.90475  32.83
 4.98525  32.7571
 5.06575  33.3718
 5.14625  33.3162
 5.22675  33.8256
 5.30725  33.9693
 5.38775  34.0494
 5.46825  34.5543
 5.54875  34.88
 5.62925  34.8458
 5.70975  35.057
 5.79025  35.4391
 5.87075  35.7312
 5.95125  37.333
 6.03175  37.2754
 6.11225  36.9169
 6.19275  36.7137
 6.27325  37.3957
 6.35375  38.0045
 6.43425  38.3166
 6.51475  38.8296
 6.59525  39.3512
 6.67575  40.1573
 6.75625  40.7438
 6.83675  41.2989
 6.91725  41.6539
 6.99775  42.3944
 7.07825  42.7887
 7.15875  43.1407
 7.23925  43.2079
 7.31975  43.5021
 7.40025  43.863
 7.48075  44.2155
 7.56125  43.8794
 7.64175  43.9156
 7.72225  44.1986
 7.80275  44.1797
 7.88325  44.0562
 7.96375  43.581
 8.04425  43.2486
 8.12475  42.7696
 8.20525  41.786
 8.28575  40.6686
 8.36625  39.6906
 8.44675  38.903
 8.52725  37.4775
 8.60775  36.0998
 8.68825  35.0966
 8.76875  33.8636
 8.84925  32.7785
 8.92975  31.5984
 9.01025  30.4078
 9.09075  29.7276
 9.17125  29.1186
 9.25175  28.1249
 9.33225  27.213
 9.41275  26.8632
 9.49325  26.3827
 9.57375  25.8002
 9.65425  25.3283
 9.73475  25.2684
 9.81525  24.8547
 9.89575  24.4594
 9.97625  24.0967
 10.0567  24.0669
 10.1373  23.7416
 10.2178  23.6002
 10.2982  23.3214
 10.3788  23.1876
 10.4593  22.9943
 10.5397  22.9256
 10.6203  22.7377
 10.7007  22.7181
 10.7813  22.8838
 10.8618  22.5171
 10.9422  22.5066
 11.0228  22.4315
 11.1033  22.2588
 11.1837  22.2548
 11.2643  22.2816
 11.3447  22.3337
 11.4253  22.4975
 11.5058  22.3144
 11.5862  23.1965
 11.6668  22.3046
 11.7473  22.1236
 11.8277  22.1794
 11.9083  22.1335
 11.9887  22.5723
 12.0693  22.4955
 12.1498  22.4258
 12.2302  22.2649
 12.3108  22.1314
 12.3913  22.3497
 12.4718  22.3764
 12.5523  22.3508
 12.6328  22.6852
 12.7133  22.6452
 12.7938  22.7287
 12.8742  23.1423
 12.9548  23.4388
 13.0353  23.9033
 13.1158  24.6881
 13.1963  25.4216
 13.2768  26.3545
 13.3573  27.3394
 13.4378  28.3132
 13.5183  29.1083
 13.5988  29.2913
 13.6793  29.5566
 13.7598  29.0606
 13.8403  28.7026
 13.9208  29.4453
 14.0013  29.7278
 14.0818  27.2103
 14.1623  26.6475
 14.2428  26.4005
 14.3233  25.9591
 14.4038  25.7644
 14.4843  25.3963
 14.5648  25.1058
 14.6453  25.0376
 14.7258  24.7719
 14.8063  24.7962
 14.8868  24.702
 14.9673  24.5852
 15.0478  24.5908
 15.1283  24.533
 15.2088  24.8929
 15.2892  24.3856
 15.3698  24.3458
 15.4503  24.4326
 15.5308  24.2482
 15.6113  24.3253
 15.6918  24.2218
 15.7723  24.2724
 15.8528  24.2927
 15.9332  24.4822
 16.0138  24.478
 16.0943  24.4263
 16.1748  24.5272
 16.2553  25.2661
 16.3358  24.6234
 16.4163  24.4302
 16.4967  24.5061
 16.5773  24.3546
 16.6578  24.3474
 16.7383  24.2675
 16.8188  24.1755
 16.8992  24.0362
 16.9798  23.9304
 17.0603  23.9182
 17.1408  23.8865
 17.2213  23.8316
 17.3017  23.7953
 17.3823  23.8392
 17.4628  23.7927
 17.5433  23.7159
 17.6238  23.5099
 17.7042  23.5416
 17.7847  23.5121
 17.8653  23.4532
 17.9458  23.3933
 18.0263  23.5577
 18.1068  23.6438
 18.1872  23.3394
 18.2678  23.298
 18.3483  23.2548
 18.4288  23.3233
 18.5093  23.3144
 18.5897  23.2838
 18.6703  23.2074
 18.7508  23.2545
 18.8313  23.2705
 18.9118  23.1363
 18.9922  23.1441
 19.0727  23.2038
 19.1533  23.3648
 19.2338  23.2352
 19.3143  23.3174
 19.3948  23.3226
 19.4752  23.2353
 19.5558  23.3603
 19.6363  23.3704
 19.7168  23.8771
 19.7973  23.7031
 19.8777  24.0757
 19.9582  23.3998
 20.0388  23.3025
 20.1193  23.4617
 20.1998  23.4136
 20.2803  23.2345
 20.3607  23.3271
 20.4413  23.5233
 20.5218  23.3991
 20.6023  23.4622
 20.6828  23.5546
 20.7632  23.9857
 20.8438  23.6502
 20.9243  23.6308
 21.0048  23.5939
 21.0853  23.5475
 21.1658  23.4907
 21.2462  23.6105
 21.3268  23.6072
 21.4073  23.6965
 21.4878  23.8044
 21.5683  23.6566
 21.6487  23.8813
 21.7293  23.8037
 21.8098  23.7424
 21.8903  23.7707
 21.9708  23.8961
 22.0512  23.939
 22.1318  24.0417
 22.2123  24.0251
 22.2928  24.1472
 22.3733  24.2523
 22.4538  24.3502
 22.5343  24.4735
 22.6148  24.6095
 22.6953  24.8521
 22.7758  25.009
 22.8563  25.2244
 22.9367  25.566
 22.9943  25.9809

File: Data_0130.chi
F:\20151113_APS_34IDE\\Brian\Particle1\OCV\Data_0130.tif
2-Theta Angle (Degrees)
Intensity
       2000
 0.07475  0.0000000E+00
 0.15525  0.0000000E+00
 0.23575  0.0000000E+00
 0.31625  0.0000000E+00
 0.39675  0.0000000E+00
 0.47725  0.0000000E+00
 0.55775  0.0000000E+00
 0.63825  0.0000000E+00
 0.71875  0.0000000E+00
 0.79925  0.0000000E+00
 0.87975  0.0000000E+00
 0.96025  0.0000000E+00
 1.04075  0.0000000E+00
 1.12125  0.0000000E+00
 1.20175  0.0000000E+00
 1.28225  0.0000000E+00
 1.36275  0.0000000E+00
 1.44325  0.0000000E+00
 1.52375  0.0000000E+00
 1.60425  0.0000000E+00
 1.68475  0.0000000E+00
 1.76525  0.0000000E+00
 1.84575  0.0000000E+00
 1.92625  0.0000000E+00
 2.00675  0.0000000E+00
 2.08725  0.0000000E+00
 2.16775  0.0000000E+00
 2.24825  0.0000000E+00
 2.32875  0.0000000E+00
 2.40925  0.0000000E+00
 2.48975  0.0000000E+00
 2.57025  0.0000000E+00
 2.65075  0.0000000E+00
 2.73125  0.0000000E+00
 2.81175  0.0000000E+00
 2.89225  36.6853
 2.97275  35.8316
 3.05325  36.174
 3.13375  34.9765
 3.21425  34.8101
 3.29475  33.9244
 3.37525  35.1543
 3.45575  34.7783
 3.53625  34.4913
 3.61675  32.8984
 3.69725  32.8596
 3.77775  33.5096
 3.85825  33.1334
 3.93875  33.0514
 4.01925  32.9936
 4.09975  32.2904
 4.18025  32.0261
 4.26075  32.4206
 4.34125  32.2308
 4.42175  32.6254
 4.50225  32.6385
 4.58275  32.3311
 4.66325  32.8947
 4.74375  32.8598
 4.82425  32.3799
 4.90475  32.6286
 4.98525  32.7202
 5.06575  33.3088
 5.14625  33.857
 5.22675  33.8461
 5.30725  33.9521
 5.38775  34.3755
 5.46825  34.2249
 5.54875  34.9422
 5.62925  35.075
 5.70975  35.448
 5.79025  35.468
 5.87075  35.5075
 5.95125  36.4519
 6.03175  36.4567
 6.11225  36.1318
 6.19275  36.6351
 6.27325  37.2289
 6.35375  37.8211
 6.43425  38.2828
 6.51475  38.9319
 6.59525  39.4167
 6.67575  39.8393
 6.75625  40.6895
 6.83675  41.1362
 6.91725  41.6331
 6.99775  42.276
 7.07825  42.7409
 7.15875  43.2054
 7.23925  43.213
 7.31975  43.7011
 7.40025  43.8891
 7.48075  44.1018
 7.56125  44.3139
 7.64175  44.5219
 7.72225  43.9615
 7.80275  44.0586
 7.88325  44.0231
 7.96375  43.7159
 8.04425  43.0628
 8.12475  42.562
 8.20525  41.7267
 8.28575  40.6724
 8.36625  40.2527
 8.44675  38.654
 8.52725  37.4034
 8.60775  36.3094
 8.68825  35.1232
 8.76875  33.6508
 8.84925  32.6078
 8.92975  31.5552
 9.01025  30.3695
 9.09075  29.4129
 9.17125  28.7016
 9.25175  27.7738
 9.33225  27.28
 9.41275  26.5485
 9.49325  26.4236
 9.57375  25.6358
 9.65425  25.3622
 9.73475  24.9075
 9.81525  24.6619
 9.89575  24.4606
 9.97625  24.0907
 10.0567  24.0056
 10.1373  23.585
 10.2178  23.601
 10.2982  23.4662
 10.3788  23.117
 10.4593  22.9119
 10.5397  22.7627
 10.6203  22.8399
 10.7007  22.6833
 10.7813  22.5818
 10.8618  22.5201
 10.9422  22.4021
 11.0228  22.3893
 11.1033  22.2884
 11.1837  22.259
 11.2643  22.2454
 11.3447  22.2652
 11.4253  22.3665
 11.5058  22.3969
 11.5862  22.8535
 11.6668  22.2162
 11.7473  22.0348
 11.8277  22.1603
 11.9083  21.9689
 11.9887  22.2786
 12.0693  22.4605
 12.1498  22.3584
 12.2302  22.0086
 12.3108  22.2247
 12.3913  22.3776
 12.4718  22.2679
 12.5523  22.3071
 12.6328  22.4831
 12.7133  22.6964
 12.7938  22.8405
 12.8742  23.1099
 12.9548  23.5015
 13.0353  23.8114
 13.1158  24.5509
 13.1963  25.386
 13.2768  26.4604
 13.3573  27.3029
 13.4378  28.1406
 13.5183  28.9704
 13.5988  29.5087
 13.6793  29.4255
 13.7598  28.8047
 13.8403  28.5803
 13.9208  28.8617
 14.0013  28.2981
 14.0818  27.0904
 14.1623  26.5671
 14.2428  26.1167
 14.3233  25.6855
 14.4038  25.5692
 14.4843  25.3434
 14.5648  25.1941
 14.6453  25.0092
 14.7258  24.9116
 14.8063  24.7044
 14.8868  24.4914
 14.9673  24.4871
 15.0478  24.4095
 15.1283  24.3903
 15.2088  24.4389
 15.2892  24.2975
 15.3698  24.2521
 15.4503  24.2836
 15.5308  24.2297
 15.6113  24.3096
 15.6918  24.2605
 15.7723  24.3956
 15.8528  24.3631
 15.9332  24.2752
 16.0138  24.47
 16.0943  24.4091
 16.1748  24.5782
 16.2553  25.201
 16.3358  24.6865
 16.4163  24.4694
 16.4967  24.4546
 16.5773  24.3894
 16.6578  24.4131
 16.7383  24.268
 16.8188  24.1356
 16.8992  24.1503
 16.9798  23.9492
 17.0603  23.8957
 17.1408  23.7697
 17.2213  23.8228
 17.3017  23.7147
 17.3823  23.7819
 17.4628  23.6637
 17.5433  23.5446
 17.6238  23.5079
 17.7042  23.4995
 17.7847  23.5619
 17.8653  23.2008
 17.9458  23.3842
 18.0263  23.4531
 18.1068  23.5071
 18.1872  23.2306
 18.2678  23.3118
 18.3483  23.3184
 18.4288  23.2302
 18.5093  23.2586
 18.5897  23.2492
 18.6703  23.1895
 18.7508  23.1666
 18.8313  23.2839
 18.9118  23.1365
 18.9922  23.1957
 19.0727  23.1947
 19.1533  23.1628
 19.2338  23.1779
 19.3143  23.2415
 19.3948  23.1914
 19.4752  23.2661
 19.5558  23.1956
 19.6363  23.2737
 19.7168  23.5715
 19.7973  23.5089
 19.8777  23.7
 19.9582  23.2771
 20.0388  23.346
 20.1193  23.4275
 20.1998  23.2956
 20.2803  23.3431
 20.3607  23.3759
 20.4413  23.3453
 20.5218  23.3152
 20.6023  23.5089
 20.6828  23.404
 20.7632  23.8467
 20.8438  23.5276
 20.9243  23.5808
 21.0048  23.4935
 21.0853  23.5666
 21.1658  23.5422
 21.2462  23.6648
 21.3268  23.5353
 21.4073  23.5866
 21.4878  23.6726
 21.5683  23.6412
 21.6487  23.7478
 21.7293  23.7497
 21.8098  23.9032
 21.8903  23.8191
 21.9708  23.8199
 22.0512  23.8729
 22.1318  23.963
 22.2123  23.9075
 22.2928  24.1266
 22.3733  24.2254
 22.4538  24.2408
 22.5343  24.5042
 22.6148  24.6205
 22.6953  24.8651
 22.7758  24.9201
 22.8563  25.0936
 22.9367  25.4004
 22.9943  25.7024