Folder: scimap-tests/test-data-xrd/xrd-map-34-ID-E (part 8)

File: Data_0032.chi
F:\20151113_APS_34IDE\\Brian\Particle1\OCV\Data_0032.tif
2-Theta Angle (Degrees)
Intensity
       2000
 0.07475  0.0000000E+00
 0.15525  0.0000000E+00
 0.23575  0.0000000E+00
 0.31625  0.0000000E+00
 0.39675  0.0000000E+00
 0.47725  0.0000000E+00
 0.55775  0.0000000E+00
 0.63825  0.0000000E+00
 0.71875  0.0000000E+00
 0.79925  0.0000000E+00
 0.87975  0.0000000E+00
 0.96025  0.0000000E+00
 1.04075  0.0000000E+00
 1.12125  0.0000000E+00
 1.20175  0.0000000E+00
 1.28225  0.0000000E+00
 1.36275  0.0000000E+00
 1.44325  0.0000000E+00
 1.52375  0.0000000E+00
 1.60425  0.0000000E+00
 1.68475  0.0000000E+00
 1.76525  0.0000000E+00
 1.84575  0.0000000E+00
 1.92625  0.0000000E+00
 2.00675  0.0000000E+00
 2.08725  0.0000000E+00
 2.16775  0.0000000E+00
 2.24825  0.0000000E+00
 2.32875  0.0000000E+00
 2.40925  0.0000000E+00
 2.48975  0.0000000E+00
 2.57025  0.0000000E+00
 2.65075  0.0000000E+00
 2.73125  0.0000000E+00
 2.81175  0.0000000E+00
 2.89225  35.6091
 2.97275  36.1549
 3.05325  36.819
 3.13375  35.8928
 3.21425  35.7486
 3.29475  35.8883
 3.37525  35.2483
 3.45575  34.7746
 3.53625  33.3803
 3.61675  33.0815
 3.69725  33.3418
 3.77775  33.3672
 3.85825  33.1432
 3.93875  32.9083
 4.01925  32.7116
 4.09975  32.9171
 4.18025  32.5443
 4.26075  32.8927
 4.34125  32.7194
 4.42175  32.6374
 4.50225  33.0235
 4.58275  33.8029
 4.66325  33.4801
 4.74375  33.2613
 4.82425  33.047
 4.90475  33.1546
 4.98525  33.3823
 5.06575  33.7055
 5.14625  34.1939
 5.22675  34.567
 5.30725  34.7371
 5.38775  35.2686
 5.46825  35.0462
 5.54875  35.1616
 5.62925  35.7272
 5.70975  35.8996
 5.79025  35.9339
 5.87075  36.2565
 5.95125  38.6791
 6.03175  38.0412
 6.11225  37.3208
 6.19275  37.168
 6.27325  37.8111
 6.35375  38.2283
 6.43425  38.8161
 6.51475  39.7166
 6.59525  39.7832
 6.67575  40.7105
 6.75625  41.1316
 6.83675  41.8911
 6.91725  42.4973
 6.99775  42.6335
 7.07825  43.2658
 7.15875  43.9422
 7.23925  44.1979
 7.31975  44.3041
 7.40025  44.8459
 7.48075  44.7512
 7.56125  44.6842
 7.64175  44.849
 7.72225  44.7107
 7.80275  44.9446
 7.88325  44.4286
 7.96375  44.5014
 8.04425  44.0717
 8.12475  43.1653
 8.20525  42.0918
 8.28575  41.3822
 8.36625  40.5158
 8.44675  39.2078
 8.52725  38.1243
 8.60775  36.8168
 8.68825  35.7072
 8.76875  34.2751
 8.84925  33.2591
 8.92975  32.0187
 9.01025  30.9854
 9.09075  30.1897
 9.17125  29.2717
 9.25175  28.3253
 9.33225  27.81
 9.41275  27.1832
 9.49325  26.5634
 9.57375  26.0182
 9.65425  25.7132
 9.73475  25.4174
 9.81525  25.027
 9.89575  24.7432
 9.97625  24.4974
 10.0567  24.2351
 10.1373  23.992
 10.2178  23.8208
 10.2982  23.6959
 10.3788  23.5883
 10.4593  23.4587
 10.5397  23.2837
 10.6203  23.134
 10.7007  23.0589
 10.7813  23.0922
 10.8618  22.8441
 10.9422  22.7684
 11.0228  22.718
 11.1033  22.6437
 11.1837  22.6696
 11.2643  22.704
 11.3447  22.5557
 11.4253  22.8486
 11.5058  22.7244
 11.5862  24.638
 11.6668  23.0093
 11.7473  22.5461
 11.8277  22.4368
 11.9083  22.7177
 11.9887  23.1241
 12.0693  23.3928
 12.1498  23.811
 12.2302  22.571
 12.3108  22.7182
 12.3913  22.6842
 12.4718  22.8009
 12.5523  22.8929
 12.6328  23.0157
 12.7133  22.9062
 12.7938  23.2026
 12.8742  23.5963
 12.9548  23.9786
 13.0353  24.3365
 13.1158  24.9822
 13.1963  25.6345
 13.2768  26.7088
 13.3573  27.9326
 13.4378  28.8991
 13.5183  29.6162
 13.5988  29.8925
 13.6793  29.6875
 13.7598  29.4441
 13.8403  29.1217
 13.9208  29.4118
 14.0013  28.7194
 14.0818  27.4476
 14.1623  27.1836
 14.2428  26.6869
 14.3233  26.2435
 14.4038  26.2012
 14.4843  25.7892
 14.5648  25.5948
 14.6453  25.4551
 14.7258  25.2581
 14.8063  25.2023
 14.8868  25.0267
 14.9673  25.1427
 15.0478  24.8794
 15.1283  25.0792
 15.2088  26.551
 15.2892  25.0693
 15.3698  24.7227
 15.4503  24.6466
 15.5308  24.5664
 15.6113  24.6741
 15.6918  24.7604
 15.7723  24.7005
 15.8528  24.6153
 15.9332  24.9457
 16.0138  24.7976
 16.0943  24.8635
 16.1748  24.9262
 16.2553  25.2053
 16.3358  24.9541
 16.4163  24.7614
 16.4967  24.7296
 16.5773  24.6615
 16.6578  24.5437
 16.7383  24.498
 16.8188  24.5582
 16.8992  24.6225
 16.9798  24.4011
 17.0603  24.264
 17.1408  24.2554
 17.2213  24.1561
 17.3017  24.1998
 17.3823  24.1515
 17.4628  24.0966
 17.5433  24.0266
 17.6238  24.0648
 17.7042  23.9836
 17.7847  23.9961
 17.8653  23.9135
 17.9458  23.8101
 18.0263  24.2675
 18.1068  24.3312
 18.1872  23.7517
 18.2678  23.5771
 18.3483  23.581
 18.4288  23.6313
 18.5093  23.6907
 18.5897  23.5242
 18.6703  23.4887
 18.7508  23.6168
 18.8313  23.4027
 18.9118  23.3653
 18.9922  23.5509
 19.0727  23.6789
 19.1533  23.6314
 19.2338  23.5469
 19.3143  23.6885
 19.3948  23.6697
 19.4752  23.7111
 19.5558  23.6357
 19.6363  23.839
 19.7168  24.5684
 19.7973  24.0683
 19.8777  24.3348
 19.9582  23.743
 20.0388  23.7963
 20.1193  23.685
 20.1998  23.77
 20.2803  23.7969
 20.3607  23.8461
 20.4413  23.8521
 20.5218  23.7831
 20.6023  24.0178
 20.6828  24.0195
 20.7632  26.626
 20.8438  24.5988
 20.9243  24.166
 21.0048  23.9609
 21.0853  23.9525
 21.1658  23.8558
 21.2462  23.9532
 21.3268  23.9082
 21.4073  23.9055
 21.4878  24.0474
 21.5683  24.0871
 21.6487  24.1125
 21.7293  24.2126
 21.8098  24.2255
 21.8903  24.3983
 21.9708  24.2786
 22.0512  24.3381
 22.1318  24.4432
 22.2123  24.408
 22.2928  24.6381
 22.3733  24.5646
 22.4538  24.7531
 22.5343  24.7587
 22.6148  25.0332
 22.6953  25.2301
 22.7758  25.3274
 22.8563  25.5683
 22.9367  25.9704
 22.9943  26.1624

File: Data_0033.chi
F:\20151113_APS_34IDE\\Brian\Particle1\OCV\Data_0033.tif
2-Theta Angle (Degrees)
Intensity
       2000
 0.07475  0.0000000E+00
 0.15525  0.0000000E+00
 0.23575  0.0000000E+00
 0.31625  0.0000000E+00
 0.39675  0.0000000E+00
 0.47725  0.0000000E+00
 0.55775  0.0000000E+00
 0.63825  0.0000000E+00
 0.71875  0.0000000E+00
 0.79925  0.0000000E+00
 0.87975  0.0000000E+00
 0.96025  0.0000000E+00
 1.04075  0.0000000E+00
 1.12125  0.0000000E+00
 1.20175  0.0000000E+00
 1.28225  0.0000000E+00
 1.36275  0.0000000E+00
 1.44325  0.0000000E+00
 1.52375  0.0000000E+00
 1.60425  0.0000000E+00
 1.68475  0.0000000E+00
 1.76525  0.0000000E+00
 1.84575  0.0000000E+00
 1.92625  0.0000000E+00
 2.00675  0.0000000E+00
 2.08725  0.0000000E+00
 2.16775  0.0000000E+00
 2.24825  0.0000000E+00
 2.32875  0.0000000E+00
 2.40925  0.0000000E+00
 2.48975  0.0000000E+00
 2.57025  0.0000000E+00
 2.65075  0.0000000E+00
 2.73125  0.0000000E+00
 2.81175  0.0000000E+00
 2.89225  36.4786
 2.97275  35.6123
 3.05325  36.093
 3.13375  35.8982
 3.21425  35.6197
 3.29475  34.9524
 3.37525  34.5952
 3.45575  34.1978
 3.53625  35.0134
 3.61675  33.9129
 3.69725  33.5224
 3.77775  33.2287
 3.85825  32.9068
 3.93875  32.7531
 4.01925  33.4422
 4.09975  32.486
 4.18025  32.84
 4.26075  32.436
 4.34125  32.4443
 4.42175  32.5493
 4.50225  33.0731
 4.58275  32.3131
 4.66325  33.2476
 4.74375  32.8047
 4.82425  32.7761
 4.90475  33.152
 4.98525  33.1049
 5.06575  33.7058
 5.14625  33.8773
 5.22675  33.9933
 5.30725  34.4767
 5.38775  34.6925
 5.46825  34.9605
 5.54875  34.8787
 5.62925  35.4162
 5.70975  35.6689
 5.79025  36.2932
 5.87075  37.1301
 5.95125  53.2714
 6.03175  43.3183
 6.11225  38.0548
 6.19275  37.9751
 6.27325  38.0899
 6.35375  38.6651
 6.43425  38.9029
 6.51475  39.1871
 6.59525  39.7472
 6.67575  40.5434
 6.75625  40.8929
 6.83675  41.5441
 6.91725  42.3446
 6.99775  42.6276
 7.07825  42.5939
 7.15875  43.3008
 7.23925  43.9438
 7.31975  43.9658
 7.40025  44.6339
 7.48075  44.661
 7.56125  44.5076
 7.64175  44.7198
 7.72225  44.5067
 7.80275  44.6112
 7.88325  44.4235
 7.96375  43.8742
 8.04425  43.5913
 8.12475  43.0248
 8.20525  42.323
 8.28575  41.1685
 8.36625  40.1759
 8.44675  39.0443
 8.52725  37.8627
 8.60775  36.2409
 8.68825  35.3989
 8.76875  34.1665
 8.84925  33.0763
 8.92975  31.5481
 9.01025  30.831
 9.09075  29.6858
 9.17125  28.8766
 9.25175  28.3808
 9.33225  27.6241
 9.41275  26.9902
 9.49325  26.4503
 9.57375  26.0794
 9.65425  25.6568
 9.73475  25.2216
 9.81525  25.0802
 9.89575  24.7194
 9.97625  24.2905
 10.0567  24.038
 10.1373  24.0967
 10.2178  23.6234
 10.2982  23.5338
 10.3788  23.3089
 10.4593  23.2209
 10.5397  23.2531
 10.6203  23.0356
 10.7007  22.9273
 10.7813  22.7296
 10.8618  22.6611
 10.9422  22.646
 11.0228  22.6442
 11.1033  22.5565
 11.1837  22.4423
 11.2643  22.3337
 11.3447  22.498
 11.4253  22.6603
 11.5058  22.784
 11.5862  27.3933
 11.6668  23.2348
 11.7473  22.5766
 11.8277  22.4865
 11.9083  22.4085
 11.9887  22.8352
 12.0693  23.2248
 12.1498  23.2264
 12.2302  22.5442
 12.3108  22.4833
 12.3913  22.5229
 12.4718  22.6307
 12.5523  22.6862
 12.6328  22.8337
 12.7133  22.8508
 12.7938  23.0145
 12.8742  23.5033
 12.9548  23.7752
 13.0353  24.0102
 13.1158  24.883
 13.1963  25.659
 13.2768  26.622
 13.3573  27.6466
 13.4378  28.5547
 13.5183  29.4047
 13.5988  29.8462
 13.6793  29.6352
 13.7598  29.3457
 13.8403  28.9378
 13.9208  29.0051
 14.0013  28.2675
 14.0818  27.3201
 14.1623  26.8921
 14.2428  26.5001
 14.3233  26.2309
 14.4038  25.9677
 14.4843  25.6513
 14.5648  25.5125
 14.6453  25.266
 14.7258  25.1197
 14.8063  25.1746
 14.8868  24.8047
 14.9673  24.7427
 15.0478  24.6568
 15.1283  25.0235
 15.2088  25.834
 15.2892  24.685
 15.3698  24.5118
 15.4503  24.4311
 15.5308  24.4163
 15.6113  24.4402
 15.6918  24.5297
 15.7723  24.4122
 15.8528  24.5284
 15.9332  24.7592
 16.0138  24.7324
 16.0943  24.5104
 16.1748  24.7798
 16.2553  24.96
 16.3358  24.8328
 16.4163  24.7623
 16.4967  24.6145
 16.5773  24.6529
 16.6578  24.5223
 16.7383  24.2777
 16.8188  24.4029
 16.8992  24.3495
 16.9798  24.2454
 17.0603  24.0031
 17.1408  24.3248
 17.2213  24.1007
 17.3017  24.0233
 17.3823  23.9899
 17.4628  23.9705
 17.5433  23.8532
 17.6238  23.9147
 17.7042  23.8223
 17.7847  23.7287
 17.8653  23.8339
 17.9458  23.6823
 18.0263  23.9218
 18.1068  24.064
 18.1872  23.6489
 18.2678  23.4803
 18.3483  23.5348
 18.4288  23.6232
 18.5093  23.5186
 18.5897  23.4965
 18.6703  23.3558
 18.7508  23.4055
 18.8313  23.3093
 18.9118  23.4306
 18.9922  23.454
 19.0727  23.4938
 19.1533  23.4757
 19.2338  23.5198
 19.3143  23.5069
 19.3948  23.5427
 19.4752  23.5074
 19.5558  23.5486
 19.6363  23.693
 19.7168  24.2924
 19.7973  23.9796
 19.8777  24.0957
 19.9582  23.5762
 20.0388  23.6393
 20.1193  23.664
 20.1998  23.5545
 20.2803  23.6838
 20.3607  23.5213
 20.4413  23.7037
 20.5218  23.5859
 20.6023  23.8024
 20.6828  23.6831
 20.7632  23.9449
 20.8438  23.8357
 20.9243  23.8046
 21.0048  23.8057
 21.0853  23.7874
 21.1658  23.8238
 21.2462  23.7811
 21.3268  23.8487
 21.4073  23.7977
 21.4878  23.9183
 21.5683  23.8607
 21.6487  23.9714
 21.7293  23.993
 21.8098  24.0444
 21.8903  24.0644
 21.9708  24.2831
 22.0512  24.104
 22.1318  24.2801
 22.2123  24.3035
 22.2928  24.4202
 22.3733  24.4833
 22.4538  24.5688
 22.5343  24.7281
 22.6148  24.8779
 22.6953  25.0062
 22.7758  25.1351
 22.8563  25.3425
 22.9367  25.8349
 22.9943  26.1825

File: Data_0034.chi
F:\20151113_APS_34IDE\\Brian\Particle1\OCV\Data_0034.tif
2-Theta Angle (Degrees)
Intensity
       2000
 0.07475  0.0000000E+00
 0.15525  0.0000000E+00
 0.23575  0.0000000E+00
 0.31625  0.0000000E+00
 0.39675  0.0000000E+00
 0.47725  0.0000000E+00
 0.55775  0.0000000E+00
 0.63825  0.0000000E+00
 0.71875  0.0000000E+00
 0.79925  0.0000000E+00
 0.87975  0.0000000E+00
 0.96025  0.0000000E+00
 1.04075  0.0000000E+00
 1.12125  0.0000000E+00
 1.20175  0.0000000E+00
 1.28225  0.0000000E+00
 1.36275  0.0000000E+00
 1.44325  0.0000000E+00
 1.52375  0.0000000E+00
 1.60425  0.0000000E+00
 1.68475  0.0000000E+00
 1.76525  0.0000000E+00
 1.84575  0.0000000E+00
 1.92625  0.0000000E+00
 2.00675  0.0000000E+00
 2.08725  0.0000000E+00
 2.16775  0.0000000E+00
 2.24825  0.0000000E+00
 2.32875  0.0000000E+00
 2.40925  0.0000000E+00
 2.48975  0.0000000E+00
 2.57025  0.0000000E+00
 2.65075  0.0000000E+00
 2.73125  0.0000000E+00
 2.81175  0.0000000E+00
 2.89225  34.6865
 2.97275  36.3214
 3.05325  36.1433
 3.13375  35.3017
 3.21425  35.5877
 3.29475  34.8973
 3.37525  35.8687
 3.45575  34.3804
 3.53625  33.5936
 3.61675  33.2422
 3.69725  33.328
 3.77775  33.6178
 3.85825  32.9153
 3.93875  32.9976
 4.01925  32.9405
 4.09975  32.4475
 4.18025  32.2131
 4.26075  32.7385
 4.34125  32.5857
 4.42175  32.7957
 4.50225  32.5691
 4.58275  32.7074
 4.66325  33.0306
 4.74375  32.5023
 4.82425  32.6403
 4.90475  32.8683
 4.98525  33.0509
 5.06575  33.2768
 5.14625  33.829
 5.22675  33.9862
 5.30725  34.1695
 5.38775  34.53
 5.46825  34.496
 5.54875  35.0132
 5.62925  35.3823
 5.70975  35.3244
 5.79025  35.9617
 5.87075  36.9001
 5.95125  57.2197
 6.03175  52.5967
 6.11225  38.0881
 6.19275  37.5633
 6.27325  37.8824
 6.35375  39.3595
 6.43425  38.5157
 6.51475  39.2766
 6.59525  39.6991
 6.67575  40.2876
 6.75625  40.7199
 6.83675  41.5305
 6.91725  41.978
 6.99775  42.4898
 7.07825  42.7822
 7.15875  43.2485
 7.23925  43.6338
 7.31975  43.7659
 7.40025  44.4876
 7.48075  44.1951
 7.56125  44.5115
 7.64175  44.5803
 7.72225  44.4201
 7.80275  44.6991
 7.88325  44.4693
 7.96375  44.0267
 8.04425  43.5357
 8.12475  43.039
 8.20525  42.1646
 8.28575  41.2761
 8.36625  40.5269
 8.44675  39.1193
 8.52725  37.9583
 8.60775  36.9461
 8.68825  35.475
 8.76875  34.3496
 8.84925  33.1838
 8.92975  32.0808
 9.01025  30.9831
 9.09075  29.9558
 9.17125  29.4676
 9.25175  28.4846
 9.33225  27.7672
 9.41275  27.0411
 9.49325  26.7289
 9.57375  26.3208
 9.65425  25.8845
 9.73475  25.347
 9.81525  25.2838
 9.89575  24.8815
 9.97625  24.5952
 10.0567  24.2988
 10.1373  24.1366
 10.2178  23.952
 10.2982  23.7961
 10.3788  23.5929
 10.4593  23.5056
 10.5397  23.2954
 10.6203  23.217
 10.7007  23.1885
 10.7813  23.2126
 10.8618  22.9419
 10.9422  22.8644
 11.0228  22.7022
 11.1033  22.8032
 11.1837  22.6565
 11.2643  22.7076
 11.3447  22.7979
 11.4253  22.7786
 11.5058  23.2148
 11.5862  28.1769
 11.6668  23.2836
 11.7473  22.6484
 11.8277  22.6482
 11.9083  22.6397
 11.9887  23.9912
 12.0693  23.2773
 12.1498  23.1223
 12.2302  22.7922
 12.3108  22.8228
 12.3913  22.7006
 12.4718  22.7826
 12.5523  22.816
 12.6328  23.0769
 12.7133  23.2007
 12.7938  23.2271
 12.8742  23.5897
 12.9548  24.0154
 13.0353  24.394
 13.1158  25.0063
 13.1963  25.8225
 13.2768  26.6824
 13.3573  27.7989
 13.4378  28.6766
 13.5183  29.5641
 13.5988  29.9658
 13.6793  29.8768
 13.7598  29.596
 13.8403  29.7893
 13.9208  39.3617
 14.0013  35.2666
 14.0818  28.2867
 14.1623  27.4281
 14.2428  26.8616
 14.3233  26.398
 14.4038  26.1365
 14.4843  25.8775
 14.5648  25.6472
 14.6453  25.5752
 14.7258  25.2553
 14.8063  25.0605
 14.8868  24.9986
 14.9673  25.0616
 15.0478  25.0257
 15.1283  25.1806
 15.2088  26.1433
 15.2892  24.9732
 15.3698  24.7081
 15.4503  24.6759
 15.5308  24.577
 15.6113  24.6853
 15.6918  24.7457
 15.7723  24.6561
 15.8528  24.8
 15.9332  24.7202
 16.0138  24.8298
 16.0943  24.9273
 16.1748  25.2075
 16.2553  29.1491
 16.3358  25.3176
 16.4163  24.8962
 16.4967  24.8609
 16.5773  24.8044
 16.6578  24.5935
 16.7383  24.6081
 16.8188  24.5697
 16.8992  24.5768
 16.9798  24.5307
 17.0603  24.3591
 17.1408  24.3014
 17.2213  24.394
 17.3017  24.4241
 17.3823  24.1479
 17.4628  24.2295
 17.5433  24.0708
 17.6238  23.9745
 17.7042  23.956
 17.7847  23.8778
 17.8653  23.9643
 17.9458  23.9041
 18.0263  24.1619
 18.1068  25.269
 18.1872  24.0176
 18.2678  23.6737
 18.3483  23.7337
 18.4288  23.7909
 18.5093  23.652
 18.5897  23.6763
 18.6703  23.5547
 18.7508  23.6073
 18.8313  23.6691
 18.9118  23.5579
 18.9922  23.6492
 19.0727  23.75
 19.1533  23.7468
 19.2338  23.6096
 19.3143  23.643
 19.3948  23.7402
 19.4752  23.7526
 19.5558  23.7424
 19.6363  23.9596
 19.7168  24.8276
 19.7973  24.3914
 19.8777  25.7759
 19.9582  23.9585
 20.0388  23.9361
 20.1193  23.7306
 20.1998  23.7548
 20.2803  23.7461
 20.3607  23.8288
 20.4413  23.9072
 20.5218  23.8567
 20.6023  24.1994
 20.6828  24.3052
 20.7632  25.9464
 20.8438  24.2549
 20.9243  24.1048
 21.0048  24.0689
 21.0853  23.9655
 21.1658  24.0926
 21.2462  24.0663
 21.3268  24.0501
 21.4073  23.9524
 21.4878  24.1351
 21.5683  24.1226
 21.6487  24.1866
 21.7293  24.243
 21.8098  24.395
 21.8903  24.3273
 21.9708  24.2639
 22.0512  24.3249
 22.1318  24.5333
 22.2123  24.4584
 22.2928  24.5849
 22.3733  24.8733
 22.4538  24.7806
 22.5343  24.9391
 22.6148  25.0466
 22.6953  25.3345
 22.7758  25.2682
 22.8563  25.6561
 22.9367  25.929
 22.9943  26.4425

File: Data_0035.chi
F:\20151113_APS_34IDE\\Brian\Particle1\OCV\Data_0035.tif
2-Theta Angle (Degrees)
Intensity
       2000
 0.07475  0.0000000E+00
 0.15525  0.0000000E+00
 0.23575  0.0000000E+00
 0.31625  0.0000000E+00
 0.39675  0.0000000E+00
 0.47725  0.0000000E+00
 0.55775  0.0000000E+00
 0.63825  0.0000000E+00
 0.71875  0.0000000E+00
 0.79925  0.0000000E+00
 0.87975  0.0000000E+00
 0.96025  0.0000000E+00
 1.04075  0.0000000E+00
 1.12125  0.0000000E+00
 1.20175  0.0000000E+00
 1.28225  0.0000000E+00
 1.36275  0.0000000E+00
 1.44325  0.0000000E+00
 1.52375  0.0000000E+00
 1.60425  0.0000000E+00
 1.68475  0.0000000E+00
 1.76525  0.0000000E+00
 1.84575  0.0000000E+00
 1.92625  0.0000000E+00
 2.00675  0.0000000E+00
 2.08725  0.0000000E+00
 2.16775  0.0000000E+00
 2.24825  0.0000000E+00
 2.32875  0.0000000E+00
 2.40925  0.0000000E+00
 2.48975  0.0000000E+00
 2.57025  0.0000000E+00
 2.65075  0.0000000E+00
 2.73125  0.0000000E+00
 2.81175  0.0000000E+00
 2.89225  35.2533
 2.97275  34.762
 3.05325  34.3142
 3.13375  35.5713
 3.21425  35.089
 3.29475  34.4939
 3.37525  34.2603
 3.45575  34.2751
 3.53625  34.1489
 3.61675  33.3739
 3.69725  32.7609
 3.77775  33.0045
 3.85825  33.2479
 3.93875  32.5293
 4.01925  32.5249
 4.09975  32.0715
 4.18025  32.0326
 4.26075  32.4953
 4.34125  32.2268
 4.42175  32.7334
 4.50225  32.3713
 4.58275  32.6357
 4.66325  32.7168
 4.74375  32.8422
 4.82425  32.6727
 4.90475  33.28
 4.98525  33.0919
 5.06575  33.4051
 5.14625  33.7301
 5.22675  34.0774
 5.30725  34.0452
 5.38775  34.3981
 5.46825  34.8314
 5.54875  34.986
 5.62925  35.5365
 5.70975  35.6863
 5.79025  35.8195
 5.87075  36.7484
 5.95125  49.7352
 6.03175  47.8596
 6.11225  37.5716
 6.19275  37.2796
 6.27325  37.7359
 6.35375  38.2159
 6.43425  38.7514
 6.51475  39.2985
 6.59525  39.8607
 6.67575  40.1738
 6.75625  40.7972
 6.83675  41.5497
 6.91725  42.1319
 6.99775  42.2756
 7.07825  42.6342
 7.15875  43.2534
 7.23925  43.5106
 7.31975  43.7638
 7.40025  43.9559
 7.48075  44.0818
 7.56125  44.5108
 7.64175  44.5636
 7.72225  44.5443
 7.80275  44.3384
 7.88325  44.1171
 7.96375  43.9025
 8.04425  43.4344
 8.12475  42.8256
 8.20525  42.0326
 8.28575  41.1099
 8.36625  40.0336
 8.44675  39.1231
 8.52725  37.9425
 8.60775  36.4648
 8.68825  35.2772
 8.76875  33.9901
 8.84925  33.1206
 8.92975  32.2373
 9.01025  30.8728
 9.09075  29.9802
 9.17125  29.2288
 9.25175  28.309
 9.33225  27.7215
 9.41275  26.8652
 9.49325  26.4855
 9.57375  26.0651
 9.65425  25.8568
 9.73475  25.3556
 9.81525  24.98
 9.89575  24.7691
 9.97625  24.4892
 10.0567  24.2731
 10.1373  24.0819
 10.2178  23.8204
 10.2982  23.7563
 10.3788  23.4282
 10.4593  23.347
 10.5397  23.129
 10.6203  23.1349
 10.7007  23.0594
 10.7813  23.0387
 10.8618  22.8242
 10.9422  22.7524
 11.0228  22.914
 11.1033  23.0978
 11.1837  22.8584
 11.2643  22.8244
 11.3447  22.9085
 11.4253  23.1977
 11.5058  24.2958
 11.5862  40.7422
 11.6668  24.8024
 11.7473  23.2689
 11.8277  22.8087
 11.9083  22.8747
 11.9887  25.0737
 12.0693  23.8292
 12.1498  24.3958
 12.2302  22.7169
 12.3108  22.7418
 12.3913  22.6462
 12.4718  22.7492
 12.5523  22.7949
 12.6328  22.9969
 12.7133  23.0477
 12.7938  23.2606
 12.8742  23.4341
 12.9548  23.8837
 13.0353  24.398
 13.1158  25.0005
 13.1963  25.8657
 13.2768  26.8852
 13.3573  27.8562
 13.4378  28.7988
 13.5183  29.783
 13.5988  30.306
 13.6793  30.4456
 13.7598  30.8561
 13.8403  32.1227
 13.9208  74.9448
 14.0013  52.5447
 14.0818  29.9015
 14.1623  28.1612
 14.2428  27.1952
 14.3233  26.6077
 14.4038  26.2652
 14.4843  25.9517
 14.5648  25.7277
 14.6453  25.4682
 14.7258  25.2639
 14.8063  25.1499
 14.8868  25.1039
 14.9673  24.95
 15.0478  24.9634
 15.1283  25.5725
 15.2088  28.373
 15.2892  25.0314
 15.3698  24.8085
 15.4503  24.7015
 15.5308  24.511
 15.6113  24.6728
 15.6918  24.7683
 15.7723  24.6421
 15.8528  24.6809
 15.9332  24.871
 16.0138  24.7555
 16.0943  24.7681
 16.1748  25.1124
 16.2553  27.6003
 16.3358  25.2824
 16.4163  24.8971
 16.4967  24.7041
 16.5773  24.6745
 16.6578  24.6066
 16.7383  24.604
 16.8188  24.5306
 16.8992  24.3568
 16.9798  24.4066
 17.0603  24.2823
 17.1408  24.2635
 17.2213  24.2013
 17.3017  24.1848
 17.3823  24.0732
 17.4628  23.9933
 17.5433  24.1084
 17.6238  24.0721
 17.7042  24.0712
 17.7847  23.9646
 17.8653  23.8835
 17.9458  23.998
 18.0263  24.897
 18.1068  28.8845
 18.1872  24.4233
 18.2678  23.9446
 18.3483  23.7364
 18.4288  23.7878
 18.5093  23.6041
 18.5897  23.7204
 18.6703  23.437
 18.7508  23.5895
 18.8313  23.5405
 18.9118  23.5261
 18.9922  23.5136
 19.0727  23.7482
 19.1533  23.7331
 19.2338  23.5805
 19.3143  23.7645
 19.3948  23.7946
 19.4752  23.7773
 19.5558  23.9889
 19.6363  24.3746
 19.7168  26.5008
 19.7973  26.1423
 19.8777  30.3921
 19.9582  24.3311
 20.0388  24.0509
 20.1193  23.8633
 20.1998  23.8811
 20.2803  23.8664
 20.3607  23.7896
 20.4413  23.7832
 20.5218  23.7799
 20.6023  24.0344
 20.6828  24.2148
 20.7632  26.8778
 20.8438  24.4582
 20.9243  24.2289
 21.0048  24.0811
 21.0853  24.1262
 21.1658  23.9451
 21.2462  23.9928
 21.3268  24.0364
 21.4073  24.0417
 21.4878  24.0847
 21.5683  24.0799
 21.6487  24.3102
 21.7293  24.2795
 21.8098  24.2107
 21.8903  24.2173
 21.9708  24.2677
 22.0512  24.4178
 22.1318  24.344
 22.2123  24.4803
 22.2928  24.5431
 22.3733  24.6601
 22.4538  24.7796
 22.5343  24.9229
 22.6148  25.0625
 22.6953  25.2607
 22.7758  25.3825
 22.8563  25.5901
 22.9367  26.0461
 22.9943  26.3335