Folder: scimap-tests/test-data-xrd/xrd-map-34-ID-E (part 9)

File: Data_0036.chi
F:\20151113_APS_34IDE\\Brian\Particle1\OCV\Data_0036.tif
2-Theta Angle (Degrees)
Intensity
       2000
 0.07475  0.0000000E+00
 0.15525  0.0000000E+00
 0.23575  0.0000000E+00
 0.31625  0.0000000E+00
 0.39675  0.0000000E+00
 0.47725  0.0000000E+00
 0.55775  0.0000000E+00
 0.63825  0.0000000E+00
 0.71875  0.0000000E+00
 0.79925  0.0000000E+00
 0.87975  0.0000000E+00
 0.96025  0.0000000E+00
 1.04075  0.0000000E+00
 1.12125  0.0000000E+00
 1.20175  0.0000000E+00
 1.28225  0.0000000E+00
 1.36275  0.0000000E+00
 1.44325  0.0000000E+00
 1.52375  0.0000000E+00
 1.60425  0.0000000E+00
 1.68475  0.0000000E+00
 1.76525  0.0000000E+00
 1.84575  0.0000000E+00
 1.92625  0.0000000E+00
 2.00675  0.0000000E+00
 2.08725  0.0000000E+00
 2.16775  0.0000000E+00
 2.24825  0.0000000E+00
 2.32875  0.0000000E+00
 2.40925  0.0000000E+00
 2.48975  0.0000000E+00
 2.57025  0.0000000E+00
 2.65075  0.0000000E+00
 2.73125  0.0000000E+00
 2.81175  0.0000000E+00
 2.89225  35.6254
 2.97275  33.8875
 3.05325  34.6606
 3.13375  34.8631
 3.21425  35.4123
 3.29475  33.8416
 3.37525  34.6079
 3.45575  33.7596
 3.53625  33.4513
 3.61675  33.3548
 3.69725  33.2575
 3.77775  32.9223
 3.85825  32.1829
 3.93875  32.3007
 4.01925  32.4894
 4.09975  31.9163
 4.18025  31.7456
 4.26075  31.9073
 4.34125  32.4532
 4.42175  31.7785
 4.50225  32.1961
 4.58275  32.2276
 4.66325  32.3388
 4.74375  32.4857
 4.82425  32.2585
 4.90475  32.5853
 4.98525  32.7927
 5.06575  33.2663
 5.14625  33.4433
 5.22675  33.6805
 5.30725  33.4839
 5.38775  34.295
 5.46825  34.5874
 5.54875  34.7476
 5.62925  35.0165
 5.70975  35.5316
 5.79025  35.6907
 5.87075  37.0789
 5.95125  57.55
 6.03175  47.0151
 6.11225  37.2902
 6.19275  37.0225
 6.27325  37.6111
 6.35375  38.0529
 6.43425  38.4489
 6.51475  39.2238
 6.59525  39.4183
 6.67575  40.2405
 6.75625  40.7949
 6.83675  41.2059
 6.91725  41.9207
 6.99775  42.6397
 7.07825  42.7459
 7.15875  42.8731
 7.23925  43.1988
 7.31975  43.6319
 7.40025  44.0547
 7.48075  43.9344
 7.56125  43.9454
 7.64175  44.1465
 7.72225  43.9041
 7.80275  44.0569
 7.88325  43.6062
 7.96375  43.5469
 8.04425  43.1877
 8.12475  42.2577
 8.20525  41.8194
 8.28575  40.7725
 8.36625  39.6936
 8.44675  38.8386
 8.52725  37.5822
 8.60775  36.2389
 8.68825  35.1973
 8.76875  33.9433
 8.84925  32.7902
 8.92975  31.7775
 9.01025  30.5287
 9.09075  29.6635
 9.17125  29.1532
 9.25175  28.0693
 9.33225  27.7496
 9.41275  27.0032
 9.49325  26.5927
 9.57375  25.9996
 9.65425  25.5542
 9.73475  25.2374
 9.81525  25.0102
 9.89575  24.6489
 9.97625  24.4233
 10.0567  24.0954
 10.1373  23.7272
 10.2178  23.6582
 10.2982  23.675
 10.3788  23.5537
 10.4593  23.3704
 10.5397  23.2934
 10.6203  23.2574
 10.7007  22.9492
 10.7813  22.9588
 10.8618  22.7936
 10.9422  22.7892
 11.0228  22.7456
 11.1033  22.5843
 11.1837  22.8039
 11.2643  22.6128
 11.3447  22.5172
 11.4253  23.1107
 11.5058  24.3064
 11.5862  40.0799
 11.6668  25.5438
 11.7473  23.0526
 11.8277  22.7856
 11.9083  22.7437
 11.9887  24.2426
 12.0693  26.3747
 12.1498  24.1015
 12.2302  22.8678
 12.3108  22.7303
 12.3913  22.6755
 12.4718  22.6921
 12.5523  22.8918
 12.6328  23.0039
 12.7133  22.9876
 12.7938  23.1325
 12.8742  23.4552
 12.9548  23.8698
 13.0353  24.3581
 13.1158  24.8773
 13.1963  25.5881
 13.2768  26.607
 13.3573  27.6853
 13.4378  28.7132
 13.5183  29.3867
 13.5988  29.7753
 13.6793  29.8464
 13.7598  29.8123
 13.8403  29.8993
 13.9208  37.7318
 14.0013  41.8208
 14.0818  28.6689
 14.1623  27.4405
 14.2428  26.9078
 14.3233  26.3636
 14.4038  26.1932
 14.4843  25.8652
 14.5648  25.7176
 14.6453  25.3257
 14.7258  25.3976
 14.8063  25.1896
 14.8868  24.993
 14.9673  24.9277
 15.0478  25.0804
 15.1283  25.7734
 15.2088  30.2412
 15.2892  25.1075
 15.3698  24.7691
 15.4503  24.6398
 15.5308  24.6346
 15.6113  24.5177
 15.6918  24.5831
 15.7723  24.6176
 15.8528  24.8012
 15.9332  24.7666
 16.0138  24.7703
 16.0943  24.9047
 16.1748  24.9958
 16.2553  27.0202
 16.3358  25.1608
 16.4163  24.9812
 16.4967  24.6969
 16.5773  24.688
 16.6578  24.6153
 16.7383  24.6371
 16.8188  24.3769
 16.8992  24.5046
 16.9798  24.4691
 17.0603  24.2931
 17.1408  24.2161
 17.2213  24.29
 17.3017  24.1734
 17.3823  23.9873
 17.4628  24.1252
 17.5433  23.9925
 17.6238  23.9442
 17.7042  23.9972
 17.7847  23.9064
 17.8653  24.0021
 17.9458  24.1055
 18.0263  26.0951
 18.1068  28.0574
 18.1872  24.5752
 18.2678  23.8946
 18.3483  23.7469
 18.4288  23.8489
 18.5093  23.637
 18.5897  23.8197
 18.6703  23.5458
 18.7508  23.6847
 18.8313  23.6194
 18.9118  23.5885
 18.9922  23.3694
 19.0727  23.5266
 19.1533  23.6958
 19.2338  23.743
 19.3143  23.6433
 19.3948  23.8375
 19.4752  23.7814
 19.5558  24.0469
 19.6363  24.4621
 19.7168  28.5475
 19.7973  27.0885
 19.8777  30.411
 19.9582  24.5058
 20.0388  23.9959
 20.1193  24.005
 20.1998  23.9386
 20.2803  23.8476
 20.3607  23.7376
 20.4413  23.8851
 20.5218  23.8674
 20.6023  24.0744
 20.6828  24.9557
 20.7632  27.667
 20.8438  24.9786
 20.9243  24.1586
 21.0048  24.0262
 21.0853  24.0989
 21.1658  23.9463
 21.2462  23.8999
 21.3268  24.0232
 21.4073  24.001
 21.4878  24.0322
 21.5683  24.1806
 21.6487  24.1798
 21.7293  24.206
 21.8098  24.3068
 21.8903  24.314
 21.9708  24.2848
 22.0512  24.3562
 22.1318  24.5188
 22.2123  24.4765
 22.2928  24.6145
 22.3733  24.5746
 22.4538  24.6471
 22.5343  24.7403
 22.6148  24.9743
 22.6953  25.1191
 22.7758  25.3964
 22.8563  25.5566
 22.9367  26.0614
 22.9943  26.5447

File: Data_0037.chi
F:\20151113_APS_34IDE\\Brian\Particle1\OCV\Data_0037.tif
2-Theta Angle (Degrees)
Intensity
       2000
 0.07475  0.0000000E+00
 0.15525  0.0000000E+00
 0.23575  0.0000000E+00
 0.31625  0.0000000E+00
 0.39675  0.0000000E+00
 0.47725  0.0000000E+00
 0.55775  0.0000000E+00
 0.63825  0.0000000E+00
 0.71875  0.0000000E+00
 0.79925  0.0000000E+00
 0.87975  0.0000000E+00
 0.96025  0.0000000E+00
 1.04075  0.0000000E+00
 1.12125  0.0000000E+00
 1.20175  0.0000000E+00
 1.28225  0.0000000E+00
 1.36275  0.0000000E+00
 1.44325  0.0000000E+00
 1.52375  0.0000000E+00
 1.60425  0.0000000E+00
 1.68475  0.0000000E+00
 1.76525  0.0000000E+00
 1.84575  0.0000000E+00
 1.92625  0.0000000E+00
 2.00675  0.0000000E+00
 2.08725  0.0000000E+00
 2.16775  0.0000000E+00
 2.24825  0.0000000E+00
 2.32875  0.0000000E+00
 2.40925  0.0000000E+00
 2.48975  0.0000000E+00
 2.57025  0.0000000E+00
 2.65075  0.0000000E+00
 2.73125  0.0000000E+00
 2.81175  0.0000000E+00
 2.89225  34.0413
 2.97275  35.7644
 3.05325  35.2628
 3.13375  35.1901
 3.21425  35.2866
 3.29475  34.9219
 3.37525  34.0333
 3.45575  33.8414
 3.53625  33.3125
 3.61675  32.8011
 3.69725  32.494
 3.77775  32.6066
 3.85825  32.5527
 3.93875  31.6554
 4.01925  32.0961
 4.09975  31.5854
 4.18025  32.0044
 4.26075  32.2293
 4.34125  31.9537
 4.42175  32.4662
 4.50225  32.6191
 4.58275  32.5342
 4.66325  32.8678
 4.74375  32.3053
 4.82425  32.1573
 4.90475  32.6212
 4.98525  32.8683
 5.06575  32.9788
 5.14625  33.3586
 5.22675  33.3487
 5.30725  34.1987
 5.38775  34.2962
 5.46825  34.6882
 5.54875  34.7462
 5.62925  35.5717
 5.70975  35.9471
 5.79025  36.3571
 5.87075  37.5545
 5.95125  68.1367
 6.03175  59.0776
 6.11225  38.3357
 6.19275  37.3801
 6.27325  37.6426
 6.35375  38.1131
 6.43425  38.2594
 6.51475  38.9406
 6.59525  39.6317
 6.67575  39.968
 6.75625  40.2607
 6.83675  41.0636
 6.91725  41.7107
 6.99775  41.9281
 7.07825  42.5098
 7.15875  43.1811
 7.23925  43.4966
 7.31975  43.3994
 7.40025  43.7181
 7.48075  44.1351
 7.56125  44.1763
 7.64175  44.0918
 7.72225  44.2461
 7.80275  44.031
 7.88325  43.8873
 7.96375  43.4605
 8.04425  43.0953
 8.12475  42.6909
 8.20525  41.9301
 8.28575  40.7715
 8.36625  39.8505
 8.44675  38.8966
 8.52725  37.7044
 8.60775  36.4257
 8.68825  35.2506
 8.76875  34.1985
 8.84925  32.8164
 8.92975  31.9228
 9.01025  30.8671
 9.09075  29.9408
 9.17125  29.2179
 9.25175  28.2859
 9.33225  28.011
 9.41275  27.4245
 9.49325  26.8867
 9.57375  26.2318
 9.65425  25.6469
 9.73475  25.4498
 9.81525  25.1594
 9.89575  24.9901
 9.97625  24.5568
 10.0567  24.5265
 10.1373  24.2825
 10.2178  24.0882
 10.2982  23.9624
 10.3788  23.6201
 10.4593  23.5501
 10.5397  23.601
 10.6203  23.4107
 10.7007  23.1842
 10.7813  23.0894
 10.8618  23.1663
 10.9422  23.0197
 11.0228  22.9266
 11.1033  22.8451
 11.1837  22.7231
 11.2643  22.7141
 11.3447  22.9118
 11.4253  23.335
 11.5058  24.1796
 11.5862  32.7068
 11.6668  27.6953
 11.7473  23.1417
 11.8277  22.926
 11.9083  22.9032
 11.9887  24.6603
 12.0693  24.3002
 12.1498  24.2792
 12.2302  22.9726
 12.3108  22.9377
 12.3913  23.004
 12.4718  22.9707
 12.5523  22.9835
 12.6328  23.1581
 12.7133  23.3165
 12.7938  23.2889
 12.8742  23.4831
 12.9548  23.8997
 13.0353  24.452
 13.1158  25.1415
 13.1963  25.8681
 13.2768  26.9039
 13.3573  27.9003
 13.4378  28.7577
 13.5183  29.4411
 13.5988  29.7866
 13.6793  30.0391
 13.7598  29.9359
 13.8403  30.4498
 13.9208  48.6884
 14.0013  47.0129
 14.0818  29.1865
 14.1623  27.8093
 14.2428  27.0634
 14.3233  26.559
 14.4038  26.1856
 14.4843  25.7561
 14.5648  25.7708
 14.6453  25.7426
 14.7258  25.468
 14.8063  25.1776
 14.8868  25.1408
 14.9673  25.0122
 15.0478  25.269
 15.1283  25.8789
 15.2088  30.7821
 15.2892  25.3777
 15.3698  24.8436
 15.4503  24.8953
 15.5308  24.6902
 15.6113  24.6118
 15.6918  24.7722
 15.7723  24.7855
 15.8528  24.795
 15.9332  24.8961
 16.0138  24.8494
 16.0943  25.0247
 16.1748  25
 16.2553  26.6212
 16.3358  25.2083
 16.4163  24.9726
 16.4967  24.9509
 16.5773  24.9355
 16.6578  24.7391
 16.7383  24.7069
 16.8188  24.5994
 16.8992  24.5711
 16.9798  24.5328
 17.0603  24.4586
 17.1408  24.3965
 17.2213  24.3935
 17.3017  24.2882
 17.3823  24.3186
 17.4628  24.2
 17.5433  24.1851
 17.6238  24.1647
 17.7042  24.085
 17.7847  24.063
 17.8653  24.1725
 17.9458  24.402
 18.0263  25.8378
 18.1068  34.0747
 18.1872  25.1075
 18.2678  24.1403
 18.3483  23.8901
 18.4288  23.8573
 18.5093  23.736
 18.5897  23.764
 18.6703  23.6681
 18.7508  23.7125
 18.8313  23.7505
 18.9118  23.7123
 18.9922  23.7036
 19.0727  23.6884
 19.1533  23.8404
 19.2338  23.6995
 19.3143  23.918
 19.3948  24.0232
 19.4752  24.0002
 19.5558  24.084
 19.6363  25.1752
 19.7168  33.0837
 19.7973  27.063
 19.8777  30.3413
 19.9582  24.7055
 20.0388  24.1639
 20.1193  24.0812
 20.1998  23.9674
 20.2803  24.0561
 20.3607  24.0456
 20.4413  24.1063
 20.5218  23.9867
 20.6023  24.1087
 20.6828  24.6102
 20.7632  27.8308
 20.8438  25.2726
 20.9243  24.2648
 21.0048  24.1789
 21.0853  24.0981
 21.1658  24.1548
 21.2462  24.1098
 21.3268  24.1112
 21.4073  24.1763
 21.4878  24.2508
 21.5683  24.2064
 21.6487  24.2539
 21.7293  24.3086
 21.8098  24.3876
 21.8903  24.4316
 21.9708  24.3485
 22.0512  24.4791
 22.1318  24.608
 22.2123  24.7128
 22.2928  24.7696
 22.3733  24.7547
 22.4538  24.9739
 22.5343  24.9669
 22.6148  25.1952
 22.6953  25.4397
 22.7758  25.6645
 22.8563  25.8325
 22.9367  26.3135
 22.9943  26.6038

File: Data_0038.chi
F:\20151113_APS_34IDE\\Brian\Particle1\OCV\Data_0038.tif
2-Theta Angle (Degrees)
Intensity
       2000
 0.07475  0.0000000E+00
 0.15525  0.0000000E+00
 0.23575  0.0000000E+00
 0.31625  0.0000000E+00
 0.39675  0.0000000E+00
 0.47725  0.0000000E+00
 0.55775  0.0000000E+00
 0.63825  0.0000000E+00
 0.71875  0.0000000E+00
 0.79925  0.0000000E+00
 0.87975  0.0000000E+00
 0.96025  0.0000000E+00
 1.04075  0.0000000E+00
 1.12125  0.0000000E+00
 1.20175  0.0000000E+00
 1.28225  0.0000000E+00
 1.36275  0.0000000E+00
 1.44325  0.0000000E+00
 1.52375  0.0000000E+00
 1.60425  0.0000000E+00
 1.68475  0.0000000E+00
 1.76525  0.0000000E+00
 1.84575  0.0000000E+00
 1.92625  0.0000000E+00
 2.00675  0.0000000E+00
 2.08725  0.0000000E+00
 2.16775  0.0000000E+00
 2.24825  0.0000000E+00
 2.32875  0.0000000E+00
 2.40925  0.0000000E+00
 2.48975  0.0000000E+00
 2.57025  0.0000000E+00
 2.65075  0.0000000E+00
 2.73125  0.0000000E+00
 2.81175  0.0000000E+00
 2.89225  33.7385
 2.97275  35.22
 3.05325  35.8091
 3.13375  35.33
 3.21425  36.1585
 3.29475  34.6249
 3.37525  33.4407
 3.45575  33.61
 3.53625  34.3689
 3.61675  33.472
 3.69725  32.5184
 3.77775  33.0607
 3.85825  32.3893
 3.93875  32.1351
 4.01925  32.7178
 4.09975  32.3234
 4.18025  31.9162
 4.26075  32.4499
 4.34125  32.1249
 4.42175  32.0167
 4.50225  32.6437
 4.58275  32.6109
 4.66325  32.6067
 4.74375  31.9976
 4.82425  32.3114
 4.90475  32.5524
 4.98525  32.7607
 5.06575  33.0523
 5.14625  33.2482
 5.22675  33.5199
 5.30725  33.7995
 5.38775  34.3947
 5.46825  34.3909
 5.54875  34.4387
 5.62925  35.3864
 5.70975  35.6146
 5.79025  36.2743
 5.87075  37.5862
 5.95125  62.02
 6.03175  54.7847
 6.11225  37.7683
 6.19275  37.6525
 6.27325  37.7008
 6.35375  37.9462
 6.43425  38.2527
 6.51475  38.9119
 6.59525  39.3233
 6.67575  40.0812
 6.75625  40.5535
 6.83675  41.0912
 6.91725  41.5731
 6.99775  42.2604
 7.07825  42.5025
 7.15875  42.7886
 7.23925  43.3437
 7.31975  43.4839
 7.40025  43.7812
 7.48075  43.8282
 7.56125  44.0499
 7.64175  44.1339
 7.72225  44.3644
 7.80275  43.7976
 7.88325  43.6794
 7.96375  43.2425
 8.04425  43.151
 8.12475  42.4325
 8.20525  41.734
 8.28575  40.9367
 8.36625  39.8317
 8.44675  38.6548
 8.52725  37.6133
 8.60775  36.162
 8.68825  34.9933
 8.76875  33.7791
 8.84925  32.9335
 8.92975  31.6061
 9.01025  30.6302
 9.09075  29.8931
 9.17125  29.2263
 9.25175  28.1364
 9.33225  27.7211
 9.41275  27.0872
 9.49325  26.5919
 9.57375  26.1563
 9.65425  25.7359
 9.73475  25.3682
 9.81525  25.0195
 9.89575  24.6028
 9.97625  24.5233
 10.0567  24.3742
 10.1373  23.9868
 10.2178  23.8429
 10.2982  23.8047
 10.3788  23.5989
 10.4593  23.5645
 10.5397  23.3483
 10.6203  23.132
 10.7007  23.1531
 10.7813  23.0101
 10.8618  22.9248
 10.9422  22.9062
 11.0228  22.7726
 11.1033  22.7631
 11.1837  22.6236
 11.2643  22.6188
 11.3447  22.7895
 11.4253  23.2399
 11.5058  23.7977
 11.5862  35.01
 11.6668  24.5765
 11.7473  22.9565
 11.8277  22.808
 11.9083  22.8267
 11.9887  24.6536
 12.0693  24.0761
 12.1498  24.1611
 12.2302  22.6453
 12.3108  22.6676
 12.3913  22.6913
 12.4718  22.8039
 12.5523  22.9221
 12.6328  22.957
 12.7133  23.1178
 12.7938  23.1177
 12.8742  23.6746
 12.9548  23.9229
 13.0353  24.3449
 13.1158  25.0159
 13.1963  25.6787
 13.2768  26.9079
 13.3573  27.7725
 13.4378  28.7362
 13.5183  29.4405
 13.5988  29.8903
 13.6793  29.9186
 13.7598  30.1002
 13.8403  31.0179
 13.9208  52.5104
 14.0013  53.4176
 14.0818  29.6008
 14.1623  27.7199
 14.2428  26.8988
 14.3233  26.6179
 14.4038  26.1883
 14.4843  25.9108
 14.5648  25.7214
 14.6453  25.5048
 14.7258  25.3794
 14.8063  25.2151
 14.8868  24.9202
 14.9673  24.9885
 15.0478  25.0982
 15.1283  25.7963
 15.2088  28.7197
 15.2892  25.1026
 15.3698  24.7925
 15.4503  24.6619
 15.5308  24.723
 15.6113  24.6966
 15.6918  24.6786
 15.7723  24.7719
 15.8528  24.771
 15.9332  24.786
 16.0138  24.8287
 16.0943  24.8491
 16.1748  24.8512
 16.2553  26.2243
 16.3358  25.0424
 16.4163  24.7061
 16.4967  24.7621
 16.5773  24.7633
 16.6578  24.7237
 16.7383  24.6526
 16.8188  24.4321
 16.8992  24.4503
 16.9798  24.337
 17.0603  24.2525
 17.1408  24.2869
 17.2213  24.2584
 17.3017  24.1671
 17.3823  24.1664
 17.4628  24.041
 17.5433  24.0478
 17.6238  24.0884
 17.7042  24.0739
 17.7847  24.0227
 17.8653  24.0046
 17.9458  24.1627
 18.0263  25.6666
 18.1068  28.2922
 18.1872  24.5752
 18.2678  23.8727
 18.3483  23.8212
 18.4288  23.7391
 18.5093  23.7533
 18.5897  23.7819
 18.6703  23.5939
 18.7508  23.6722
 18.8313  23.6163
 18.9118  23.7245
 18.9922  23.5401
 19.0727  23.5758
 19.1533  23.6262
 19.2338  23.5514
 19.3143  23.7098
 19.3948  23.7386
 19.4752  23.9415
 19.5558  23.9719
 19.6363  24.7108
 19.7168  30.3148
 19.7973  26.3006
 19.8777  27.5954
 19.9582  24.3502
 20.0388  24.0451
 20.1193  23.9937
 20.1998  23.9251
 20.2803  23.9134
 20.3607  23.9948
 20.4413  23.8882
 20.5218  23.9448
 20.6023  24.0422
 20.6828  24.7662
 20.7632  29.1122
 20.8438  24.8121
 20.9243  24.3284
 21.0048  24.0853
 21.0853  24.1215
 21.1658  24.0894
 21.2462  24.0996
 21.3268  24.0903
 21.4073  24.1366
 21.4878  24.1059
 21.5683  24.2302
 21.6487  24.2142
 21.7293  24.3377
 21.8098  24.453
 21.8903  24.3796
 21.9708  24.3956
 22.0512  24.4414
 22.1318  24.608
 22.2123  24.5176
 22.2928  24.7256
 22.3733  24.7033
 22.4538  24.7951
 22.5343  24.9756
 22.6148  25.191
 22.6953  25.3904
 22.7758  25.3812
 22.8563  25.7298
 22.9367  26.0378
 22.9943  26.4128

File: Data_0039.chi
F:\20151113_APS_34IDE\\Brian\Particle1\OCV\Data_0039.tif
2-Theta Angle (Degrees)
Intensity
       2000
 0.07475  0.0000000E+00
 0.15525  0.0000000E+00
 0.23575  0.0000000E+00
 0.31625  0.0000000E+00
 0.39675  0.0000000E+00
 0.47725  0.0000000E+00
 0.55775  0.0000000E+00
 0.63825  0.0000000E+00
 0.71875  0.0000000E+00
 0.79925  0.0000000E+00
 0.87975  0.0000000E+00
 0.96025  0.0000000E+00
 1.04075  0.0000000E+00
 1.12125  0.0000000E+00
 1.20175  0.0000000E+00
 1.28225  0.0000000E+00
 1.36275  0.0000000E+00
 1.44325  0.0000000E+00
 1.52375  0.0000000E+00
 1.60425  0.0000000E+00
 1.68475  0.0000000E+00
 1.76525  0.0000000E+00
 1.84575  0.0000000E+00
 1.92625  0.0000000E+00
 2.00675  0.0000000E+00
 2.08725  0.0000000E+00
 2.16775  0.0000000E+00
 2.24825  0.0000000E+00
 2.32875  0.0000000E+00
 2.40925  0.0000000E+00
 2.48975  0.0000000E+00
 2.57025  0.0000000E+00
 2.65075  0.0000000E+00
 2.73125  0.0000000E+00
 2.81175  0.0000000E+00
 2.89225  35.4067
 2.97275  36.5892
 3.05325  35.2167
 3.13375  36.1116
 3.21425  35.288
 3.29475  33.2923
 3.37525  34.4816
 3.45575  33.766
 3.53625  33.4878
 3.61675  32.8783
 3.69725  32.842
 3.77775  32.6252
 3.85825  32.0359
 3.93875  32.0764
 4.01925  32.1059
 4.09975  32.5429
 4.18025  31.9144
 4.26075  32.4757
 4.34125  32.2874
 4.42175  32.0223
 4.50225  32.072
 4.58275  32.2123
 4.66325  32.5353
 4.74375  32.1971
 4.82425  32.3253
 4.90475  32.6252
 4.98525  32.7548
 5.06575  32.7018
 5.14625  33.1997
 5.22675  33.5328
 5.30725  34.0622
 5.38775  34.1941
 5.46825  34.324
 5.54875  34.4045
 5.62925  34.9527
 5.70975  35.3098
 5.79025  35.8883
 5.87075  36.5425
 5.95125  50.3072
 6.03175  43.3327
 6.11225  37.2194
 6.19275  37.0033
 6.27325  37.2757
 6.35375  37.5703
 6.43425  38.1814
 6.51475  38.7974
 6.59525  38.9548
 6.67575  39.7332
 6.75625  40.5638
 6.83675  41.0737
 6.91725  41.8657
 6.99775  41.5177
 7.07825  42.3686
 7.15875  42.7617
 7.23925  43.0712
 7.31975  43.5725
 7.40025  43.6245
 7.48075  44.0334
 7.56125  44.0485
 7.64175  43.8938
 7.72225  43.8627
 7.80275  44.0272
 7.88325  43.2732
 7.96375  43.191
 8.04425  43.0287
 8.12475  42.3737
 8.20525  41.5609
 8.28575  40.5196
 8.36625  39.7368
 8.44675  38.8181
 8.52725  37.0884
 8.60775  36.2773
 8.68825  34.8485
 8.76875  33.6988
 8.84925  32.7522
 8.92975  31.6368
 9.01025  30.3501
 9.09075  29.8764
 9.17125  28.7755
 9.25175  28.1127
 9.33225  27.4789
 9.41275  27.0798
 9.49325  26.4891
 9.57375  25.9224
 9.65425  25.5507
 9.73475  25.2801
 9.81525  24.7975
 9.89575  24.7863
 9.97625  24.2963
 10.0567  24.0435
 10.1373  23.9792
 10.2178  23.8527
 10.2982  23.682
 10.3788  23.3965
 10.4593  23.2325
 10.5397  23.1519
 10.6203  22.9501
 10.7007  22.9906
 10.7813  22.8915
 10.8618  22.7949
 10.9422  22.6694
 11.0228  22.7051
 11.1033  22.6615
 11.1837  22.663
 11.2643  22.6091
 11.3447  22.3671
 11.4253  23.0508
 11.5058  23.1161
 11.5862  29.8653
 11.6668  23.8433
 11.7473  22.6455
 11.8277  22.7155
 11.9083  22.6654
 11.9887  23.9605
 12.0693  25.4543
 12.1498  25.4215
 12.2302  22.7243
 12.3108  22.7421
 12.3913  22.806
 12.4718  22.6681
 12.5523  22.7807
 12.6328  22.97
 12.7133  23.0594
 12.7938  23.2317
 12.8742  23.3231
 12.9548  23.768
 13.0353  24.2538
 13.1158  24.8702
 13.1963  25.6708
 13.2768  26.6269
 13.3573  27.5745
 13.4378  28.5188
 13.5183  29.3269
 13.5988  29.5631
 13.6793  29.6517
 13.7598  29.6061
 13.8403  30.1083
 13.9208  44.9101
 14.0013  38.7014
 14.0818  28.6365
 14.1623  27.3267
 14.2428  26.5719
 14.3233  26.3097
 14.4038  26.057
 14.4843  25.676
 14.5648  25.6219
 14.6453  25.3182
 14.7258  25.2848
 14.8063  25.0029
 14.8868  24.9192
 14.9673  24.8611
 15.0478  24.8626
 15.1283  25.1318
 15.2088  27.25
 15.2892  25.0604
 15.3698  24.7085
 15.4503  24.5818
 15.5308  24.6965
 15.6113  24.5234
 15.6918  24.6094
 15.7723  24.6636
 15.8528  24.5844
 15.9332  24.7996
 16.0138  24.7622
 16.0943  24.7155
 16.1748  24.9169
 16.2553  25.8138
 16.3358  24.9466
 16.4163  24.6877
 16.4967  24.6535
 16.5773  24.612
 16.6578  24.6606
 16.7383  24.5867
 16.8188  24.5465
 16.8992  24.5177
 16.9798  24.3589
 17.0603  24.3653
 17.1408  24.3358
 17.2213  24.2369
 17.3017  24.1168
 17.3823  24.0041
 17.4628  24.1439
 17.5433  24.1255
 17.6238  24.0562
 17.7042  23.9575
 17.7847  23.9374
 17.8653  23.933
 17.9458  23.9624
 18.0263  24.6763
 18.1068  25.4693
 18.1872  24.0901
 18.2678  23.858
 18.3483  23.7988
 18.4288  23.7299
 18.5093  23.6443
 18.5897  23.7231
 18.6703  23.6243
 18.7508  23.6127
 18.8313  23.5634
 18.9118  23.5263
 18.9922  23.6422
 19.0727  23.6445
 19.1533  23.7044
 19.2338  23.6947
 19.3143  23.7561
 19.3948  23.8692
 19.4752  23.8153
 19.5558  24.044
 19.6363  24.7643
 19.7168  30.2985
 19.7973  25.9012
 19.8777  28.6236
 19.9582  24.3658
 20.0388  24.0114
 20.1193  24.0274
 20.1998  23.8935
 20.2803  23.9254
 20.3607  23.9799
 20.4413  23.9187
 20.5218  23.8632
 20.6023  105.666
 20.6828  24.5211
 20.7632  28.6445
 20.8438  24.8141
 20.9243  24.2184
 21.0048  24.1128
 21.0853  23.9286
 21.1658  23.9582
 21.2462  24.0579
 21.3268  24.0767
 21.4073  24.0854
 21.4878  24.0494
 21.5683  24.0701
 21.6487  24.2046
 21.7293  24.1491
 21.8098  24.3997
 21.8903  24.2926
 21.9708  24.3314
 22.0512  24.2856
 22.1318  24.4383
 22.2123  24.342
 22.2928  24.5009
 22.3733  24.5677
 22.4538  24.7862
 22.5343  24.9501
 22.6148  25.0821
 22.6953  25.1566
 22.7758  25.4734
 22.8563  25.6435
 22.9367  26.1665
 22.9943  26.784