Folder: scimap-tests/test-data-xrd/xrd-map-34-ID-E (part 26)

File: Data_0107.chi
F:\20151113_APS_34IDE\\Brian\Particle1\OCV\Data_0107.tif
2-Theta Angle (Degrees)
Intensity
       2000
 0.07475  0.0000000E+00
 0.15525  0.0000000E+00
 0.23575  0.0000000E+00
 0.31625  0.0000000E+00
 0.39675  0.0000000E+00
 0.47725  0.0000000E+00
 0.55775  0.0000000E+00
 0.63825  0.0000000E+00
 0.71875  0.0000000E+00
 0.79925  0.0000000E+00
 0.87975  0.0000000E+00
 0.96025  0.0000000E+00
 1.04075  0.0000000E+00
 1.12125  0.0000000E+00
 1.20175  0.0000000E+00
 1.28225  0.0000000E+00
 1.36275  0.0000000E+00
 1.44325  0.0000000E+00
 1.52375  0.0000000E+00
 1.60425  0.0000000E+00
 1.68475  0.0000000E+00
 1.76525  0.0000000E+00
 1.84575  0.0000000E+00
 1.92625  0.0000000E+00
 2.00675  0.0000000E+00
 2.08725  0.0000000E+00
 2.16775  0.0000000E+00
 2.24825  0.0000000E+00
 2.32875  0.0000000E+00
 2.40925  0.0000000E+00
 2.48975  0.0000000E+00
 2.57025  0.0000000E+00
 2.65075  0.0000000E+00
 2.73125  0.0000000E+00
 2.81175  0.0000000E+00
 2.89225  33.8902
 2.97275  34.6699
 3.05325  36.0978
 3.13375  34.3564
 3.21425  35.5174
 3.29475  34.0323
 3.37525  34.8491
 3.45575  34.2914
 3.53625  34.6579
 3.61675  33.5548
 3.69725  33.0649
 3.77775  33.1548
 3.85825  33.3497
 3.93875  32.9249
 4.01925  33.1722
 4.09975  32.6192
 4.18025  32.0465
 4.26075  32.2416
 4.34125  32.4971
 4.42175  32.3902
 4.50225  32.4612
 4.58275  32.1426
 4.66325  32.6784
 4.74375  32.9775
 4.82425  32.8043
 4.90475  32.8051
 4.98525  32.7596
 5.06575  33.3794
 5.14625  33.5826
 5.22675  33.979
 5.30725  33.9938
 5.38775  34.258
 5.46825  34.5584
 5.54875  35.0964
 5.62925  35.4761
 5.70975  35.4706
 5.79025  35.9166
 5.87075  37.1156
 5.95125  58.3195
 6.03175  55.5757
 6.11225  37.6093
 6.19275  37.4526
 6.27325  37.8196
 6.35375  37.9999
 6.43425  38.7627
 6.51475  38.9667
 6.59525  39.6303
 6.67575  40.0292
 6.75625  40.5581
 6.83675  41.1855
 6.91725  41.8669
 6.99775  41.9196
 7.07825  42.398
 7.15875  43.154
 7.23925  43.414
 7.31975  43.6699
 7.40025  43.7757
 7.48075  43.7697
 7.56125  43.8906
 7.64175  43.9175
 7.72225  44.0499
 7.80275  43.9597
 7.88325  43.385
 7.96375  43.3093
 8.04425  42.7904
 8.12475  42.3514
 8.20525  41.3875
 8.28575  40.6129
 8.36625  39.6071
 8.44675  38.5162
 8.52725  37.4379
 8.60775  36.0656
 8.68825  34.8584
 8.76875  33.6269
 8.84925  32.6048
 8.92975  31.4185
 9.01025  30.3543
 9.09075  29.4761
 9.17125  28.7361
 9.25175  27.7897
 9.33225  27.3052
 9.41275  26.6237
 9.49325  26.221
 9.57375  25.8762
 9.65425  25.2937
 9.73475  24.8244
 9.81525  24.5551
 9.89575  24.3965
 9.97625  24.0513
 10.0567  23.8571
 10.1373  23.6085
 10.2178  23.3979
 10.2982  23.2907
 10.3788  23.2757
 10.4593  23.0004
 10.5397  22.9794
 10.6203  22.8806
 10.7007  22.611
 10.7813  22.4439
 10.8618  22.5579
 10.9422  22.485
 11.0228  22.2165
 11.1033  22.3262
 11.1837  22.3126
 11.2643  22.2405
 11.3447  22.3395
 11.4253  22.6403
 11.5058  22.7867
 11.5862  26.4904
 11.6668  22.9737
 11.7473  22.3411
 11.8277  22.2159
 11.9083  22.2887
 11.9887  22.7766
 12.0693  23.1161
 12.1498  22.8846
 12.2302  22.1911
 12.3108  22.4246
 12.3913  22.2374
 12.4718  22.4584
 12.5523  22.528
 12.6328  22.6681
 12.7133  22.8198
 12.7938  22.8147
 12.8742  23.237
 12.9548  23.5606
 13.0353  23.7843
 13.1158  24.5488
 13.1963  25.5546
 13.2768  26.4563
 13.3573  27.4745
 13.4378  28.2301
 13.5183  29.1122
 13.5988  29.4959
 13.6793  29.5699
 13.7598  29.5629
 13.8403  30.0862
 13.9208  42.6985
 14.0013  43.8804
 14.0818  28.57
 14.1623  27.1711
 14.2428  26.5397
 14.3233  26.1406
 14.4038  25.7385
 14.4843  25.4874
 14.5648  25.3576
 14.6453  25.0586
 14.7258  24.9345
 14.8063  24.9134
 14.8868  24.5812
 14.9673  24.5988
 15.0478  24.7206
 15.1283  25.2546
 15.2088  27.9099
 15.2892  24.9908
 15.3698  24.5655
 15.4503  24.3384
 15.5308  24.4247
 15.6113  24.3172
 15.6918  24.4993
 15.7723  24.3318
 15.8528  24.389
 15.9332  24.4741
 16.0138  24.4608
 16.0943  24.5398
 16.1748  24.6825
 16.2553  25.4184
 16.3358  24.729
 16.4163  24.5352
 16.4967  24.3207
 16.5773  24.769
 16.6578  24.3588
 16.7383  24.3149
 16.8188  24.1957
 16.8992  24.1121
 16.9798  24.0518
 17.0603  23.9111
 17.1408  23.9457
 17.2213  23.9995
 17.3017  23.8977
 17.3823  23.8173
 17.4628  23.7817
 17.5433  23.7928
 17.6238  23.7833
 17.7042  23.6765
 17.7847  23.6202
 17.8653  23.661
 17.9458  23.6143
 18.0263  23.8186
 18.1068  24.1699
 18.1872  23.6532
 18.2678  23.4589
 18.3483  23.6592
 18.4288  23.5087
 18.5093  23.4975
 18.5897  23.4254
 18.6703  23.2394
 18.7508  23.2736
 18.8313  23.3443
 18.9118  23.2835
 18.9922  23.4003
 19.0727  23.2728
 19.1533  23.3165
 19.2338  23.2861
 19.3143  23.3669
 19.3948  23.4916
 19.4752  23.4245
 19.5558  23.621
 19.6363  23.9153
 19.7168  26.0105
 19.7973  26.3847
 19.8777  30.1175
 19.9582  24.0185
 20.0388  23.6684
 20.1193  23.5874
 20.1998  23.5429
 20.2803  23.5561
 20.3607  23.5732
 20.4413  23.5334
 20.5218  23.4344
 20.6023  23.6146
 20.6828  24.1167
 20.7632  26.681
 20.8438  24.1906
 20.9243  23.7762
 21.0048  23.6255
 21.0853  23.5948
 21.1658  23.6097
 21.2462  23.6352
 21.3268  23.6683
 21.4073  23.745
 21.4878  23.6155
 21.5683  23.6662
 21.6487  23.8154
 21.7293  23.9379
 21.8098  23.9798
 21.8903  23.9039
 21.9708  24.0182
 22.0512  23.9386
 22.1318  24.1207
 22.2123  24.079
 22.2928  24.1405
 22.3733  24.3286
 22.4538  24.4271
 22.5343  24.5552
 22.6148  24.6151
 22.6953  24.8998
 22.7758  25.0267
 22.8563  25.2434
 22.9367  25.6983
 22.9943  26.1956

File: Data_0108.chi
F:\20151113_APS_34IDE\\Brian\Particle1\OCV\Data_0108.tif
2-Theta Angle (Degrees)
Intensity
       2000
 0.07475  0.0000000E+00
 0.15525  0.0000000E+00
 0.23575  0.0000000E+00
 0.31625  0.0000000E+00
 0.39675  0.0000000E+00
 0.47725  0.0000000E+00
 0.55775  0.0000000E+00
 0.63825  0.0000000E+00
 0.71875  0.0000000E+00
 0.79925  0.0000000E+00
 0.87975  0.0000000E+00
 0.96025  0.0000000E+00
 1.04075  0.0000000E+00
 1.12125  0.0000000E+00
 1.20175  0.0000000E+00
 1.28225  0.0000000E+00
 1.36275  0.0000000E+00
 1.44325  0.0000000E+00
 1.52375  0.0000000E+00
 1.60425  0.0000000E+00
 1.68475  0.0000000E+00
 1.76525  0.0000000E+00
 1.84575  0.0000000E+00
 1.92625  0.0000000E+00
 2.00675  0.0000000E+00
 2.08725  0.0000000E+00
 2.16775  0.0000000E+00
 2.24825  0.0000000E+00
 2.32875  0.0000000E+00
 2.40925  0.0000000E+00
 2.48975  0.0000000E+00
 2.57025  0.0000000E+00
 2.65075  0.0000000E+00
 2.73125  0.0000000E+00
 2.81175  0.0000000E+00
 2.89225  35.836
 2.97275  35.0598
 3.05325  35.5137
 3.13375  36.8202
 3.21425  35.8913
 3.29475  35.7291
 3.37525  34.1605
 3.45575  34.741
 3.53625  33.6363
 3.61675  33.2273
 3.69725  33.3777
 3.77775  33.9471
 3.85825  33.4077
 3.93875  32.9623
 4.01925  32.9781
 4.09975  32.2244
 4.18025  32.6978
 4.26075  32.8152
 4.34125  32.165
 4.42175  32.8022
 4.50225  32.7591
 4.58275  32.5934
 4.66325  32.8998
 4.74375  32.0195
 4.82425  32.5405
 4.90475  32.6173
 4.98525  32.843
 5.06575  33.3279
 5.14625  33.7265
 5.22675  33.8472
 5.30725  34.2238
 5.38775  34.3438
 5.46825  34.5298
 5.54875  34.5896
 5.62925  35.0104
 5.70975  35.1318
 5.79025  35.4797
 5.87075  35.9163
 5.95125  38.1893
 6.03175  37.5626
 6.11225  36.5904
 6.19275  36.9018
 6.27325  37.2806
 6.35375  38.0771
 6.43425  38.0615
 6.51475  39.183
 6.59525  39.5349
 6.67575  39.9626
 6.75625  40.6363
 6.83675  41.1838
 6.91725  41.5611
 6.99775  41.9616
 7.07825  42.3191
 7.15875  42.8097
 7.23925  43.2976
 7.31975  43.2468
 7.40025  43.5773
 7.48075  43.8389
 7.56125  43.9917
 7.64175  44.2182
 7.72225  43.8798
 7.80275  43.9031
 7.88325  43.7792
 7.96375  42.9397
 8.04425  43.266
 8.12475  42.3575
 8.20525  41.4078
 8.28575  40.3815
 8.36625  39.8229
 8.44675  38.2762
 8.52725  37.1244
 8.60775  36.0163
 8.68825  34.8792
 8.76875  33.4523
 8.84925  32.2767
 8.92975  31.5327
 9.01025  30.2047
 9.09075  29.2988
 9.17125  28.4515
 9.25175  27.7649
 9.33225  27.1809
 9.41275  26.4658
 9.49325  25.9548
 9.57375  25.506
 9.65425  25.1624
 9.73475  24.9937
 9.81525  24.3321
 9.89575  24.2157
 9.97625  23.9159
 10.0567  23.7769
 10.1373  24.2128
 10.2178  23.383
 10.2982  23.2862
 10.3788  22.8497
 10.4593  22.752
 10.5397  22.8687
 10.6203  22.6483
 10.7007  22.5344
 10.7813  22.3322
 10.8618  22.1605
 10.9422  22.2164
 11.0228  22.1891
 11.1033  22.318
 11.1837  22.1784
 11.2643  22.1428
 11.3447  22.1813
 11.4253  22.2724
 11.5058  22.2826
 11.5862  23.7091
 11.6668  22.2084
 11.7473  22.0689
 11.8277  22.1624
 11.9083  22.2061
 11.9887  22.281
 12.0693  22.3805
 12.1498  22.3612
 12.2302  22.0456
 12.3108  22.1577
 12.3913  22.1373
 12.4718  22.3046
 12.5523  22.3779
 12.6328  22.2894
 12.7133  22.556
 12.7938  22.738
 12.8742  23.056
 12.9548  23.3565
 13.0353  23.8243
 13.1158  24.4938
 13.1963  25.1518
 13.2768  26.245
 13.3573  27.1041
 13.4378  28.0456
 13.5183  28.97
 13.5988  29.2197
 13.6793  29.3337
 13.7598  29.0498
 13.8403  28.6817
 13.9208  31.4821
 14.0013  30.7644
 14.0818  27.1874
 14.1623  26.6715
 14.2428  26.1146
 14.3233  25.9784
 14.4038  25.7684
 14.4843  25.3367
 14.5648  25.1835
 14.6453  24.864
 14.7258  24.758
 14.8063  24.7935
 14.8868  24.4693
 14.9673  24.3758
 15.0478  24.5005
 15.1283  24.4511
 15.2088  24.8807
 15.2892  24.3863
 15.3698  24.18
 15.4503  24.1766
 15.5308  24.1665
 15.6113  24.1833
 15.6918  24.2003
 15.7723  24.1857
 15.8528  24.3435
 15.9332  24.223
 16.0138  24.3851
 16.0943  24.4979
 16.1748  24.385
 16.2553  24.9533
 16.3358  24.5946
 16.4163  24.2994
 16.4967  24.2405
 16.5773  24.2096
 16.6578  24.1482
 16.7383  24.2603
 16.8188  24.0455
 16.8992  23.9308
 16.9798  23.9735
 17.0603  23.8659
 17.1408  23.7721
 17.2213  23.8412
 17.3017  23.676
 17.3823  23.6369
 17.4628  23.5931
 17.5433  23.4722
 17.6238  23.482
 17.7042  23.3574
 17.7847  23.3878
 17.8653  23.2946
 17.9458  23.2994
 18.0263  23.3971
 18.1068  23.7506
 18.1872  23.3807
 18.2678  23.1975
 18.3483  23.1644
 18.4288  23.1803
 18.5093  23.1156
 18.5897  23.1429
 18.6703  23.1199
 18.7508  23.0492
 18.8313  23.0676
 18.9118  23.005
 18.9922  22.9893
 19.0727  23.0242
 19.1533  23.1138
 19.2338  22.9943
 19.3143  23.1351
 19.3948  23.112
 19.4752  23.1622
 19.5558  23.2322
 19.6363  23.3203
 19.7168  24.1028
 19.7973  23.7433
 19.8777  24.1656
 19.9582  23.3296
 20.0388  23.2165
 20.1193  23.2386
 20.1998  23.2468
 20.2803  23.3198
 20.3607  23.2397
 20.4413  23.3021
 20.5218  23.2035
 20.6023  23.512
 20.6828  23.4866
 20.7632  24.017
 20.8438  23.4659
 20.9243  23.5217
 21.0048  23.4802
 21.0853  23.3972
 21.1658  23.4051
 21.2462  23.444
 21.3268  23.5025
 21.4073  23.6645
 21.4878  23.6023
 21.5683  23.5301
 21.6487  23.7234
 21.7293  23.6941
 21.8098  23.8126
 21.8903  23.745
 21.9708  23.8293
 22.0512  23.8334
 22.1318  23.8567
 22.2123  23.8491
 22.2928  24.0243
 22.3733  24.2347
 22.4538  24.2304
 22.5343  24.2136
 22.6148  24.4289
 22.6953  24.6524
 22.7758  24.7601
 22.8563  25.0644
 22.9367  25.5425
 22.9943  25.7986

File: Data_0109.chi
F:\20151113_APS_34IDE\\Brian\Particle1\OCV\Data_0109.tif
2-Theta Angle (Degrees)
Intensity
       2000
 0.07475  0.0000000E+00
 0.15525  0.0000000E+00
 0.23575  0.0000000E+00
 0.31625  0.0000000E+00
 0.39675  0.0000000E+00
 0.47725  0.0000000E+00
 0.55775  0.0000000E+00
 0.63825  0.0000000E+00
 0.71875  0.0000000E+00
 0.79925  0.0000000E+00
 0.87975  0.0000000E+00
 0.96025  0.0000000E+00
 1.04075  0.0000000E+00
 1.12125  0.0000000E+00
 1.20175  0.0000000E+00
 1.28225  0.0000000E+00
 1.36275  0.0000000E+00
 1.44325  0.0000000E+00
 1.52375  0.0000000E+00
 1.60425  0.0000000E+00
 1.68475  0.0000000E+00
 1.76525  0.0000000E+00
 1.84575  0.0000000E+00
 1.92625  0.0000000E+00
 2.00675  0.0000000E+00
 2.08725  0.0000000E+00
 2.16775  0.0000000E+00
 2.24825  0.0000000E+00
 2.32875  0.0000000E+00
 2.40925  0.0000000E+00
 2.48975  0.0000000E+00
 2.57025  0.0000000E+00
 2.65075  0.0000000E+00
 2.73125  0.0000000E+00
 2.81175  0.0000000E+00
 2.89225  35.0144
 2.97275  35.6959
 3.05325  36.1888
 3.13375  35.2834
 3.21425  35.0404
 3.29475  34.8167
 3.37525  34.1509
 3.45575  35.3393
 3.53625  33.9296
 3.61675  33.2761
 3.69725  33.4634
 3.77775  32.8282
 3.85825  32.5559
 3.93875  32.7401
 4.01925  32.7488
 4.09975  32.2848
 4.18025  31.7476
 4.26075  31.8472
 4.34125  31.9265
 4.42175  32.2482
 4.50225  32.4222
 4.58275  32.3871
 4.66325  32.3997
 4.74375  32.8144
 4.82425  32.5991
 4.90475  32.777
 4.98525  32.6949
 5.06575  33.3541
 5.14625  33.7063
 5.22675  33.8092
 5.30725  33.785
 5.38775  34.4638
 5.46825  34.3607
 5.54875  34.9833
 5.62925  34.9687
 5.70975  35.0428
 5.79025  35.2598
 5.87075  35.6594
 5.95125  36.9805
 6.03175  37.0178
 6.11225  36.6065
 6.19275  36.7515
 6.27325  37.3399
 6.35375  37.8835
 6.43425  38.2931
 6.51475  38.883
 6.59525  39.2261
 6.67575  40.0035
 6.75625  40.3394
 6.83675  41.3416
 6.91725  41.723
 6.99775  42.105
 7.07825  42.3514
 7.15875  42.8345
 7.23925  43.1971
 7.31975  43.5769
 7.40025  43.9104
 7.48075  44.2947
 7.56125  44.0557
 7.64175  44.0186
 7.72225  44.0998
 7.80275  44.0493
 7.88325  43.6418
 7.96375  43.6131
 8.04425  42.9442
 8.12475  42.5539
 8.20525  41.8192
 8.28575  40.7563
 8.36625  39.8573
 8.44675  38.8844
 8.52725  37.3343
 8.60775  36.0867
 8.68825  35.1247
 8.76875  33.74
 8.84925  32.6922
 8.92975  31.4084
 9.01025  30.4087
 9.09075  29.426
 9.17125  28.7654
 9.25175  28.0694
 9.33225  27.3506
 9.41275  26.7652
 9.49325  26.137
 9.57375  25.6969
 9.65425  25.1445
 9.73475  24.9861
 9.81525  24.728
 9.89575  24.3924
 9.97625  24.0417
 10.0567  23.6956
 10.1373  23.5092
 10.2178  23.4847
 10.2982  23.3422
 10.3788  23.0547
 10.4593  22.9335
 10.5397  22.8827
 10.6203  22.762
 10.7007  22.6608
 10.7813  22.5878
 10.8618  22.4699
 10.9422  22.3321
 11.0228  22.3238
 11.1033  22.2861
 11.1837  22.1243
 11.2643  22.1006
 11.3447  22.1167
 11.4253  22.3141
 11.5058  22.0212
 11.5862  23.2019
 11.6668  22.1698
 11.7473  22.0237
 11.8277  22.0181
 11.9083  22.0109
 11.9887  22.2496
 12.0693  22.3991
 12.1498  22.2685
 12.2302  22.0504
 12.3108  22.0304
 12.3913  22.1882
 12.4718  22.3916
 12.5523  22.3435
 12.6328  22.5952
 12.7133  22.7534
 12.7938  22.7187
 12.8742  23.0336
 12.9548  23.3481
 13.0353  23.7257
 13.1158  24.5771
 13.1963  25.2911
 13.2768  26.2359
 13.3573  27.2511
 13.4378  28.2967
 13.5183  28.975
 13.5988  29.3709
 13.6793  29.2667
 13.7598  28.9566
 13.8403  28.5
 13.9208  28.903
 14.0013  28.2793
 14.0818  27.0701
 14.1623  26.5728
 14.2428  26.0499
 14.3233  25.6152
 14.4038  25.4786
 14.4843  25.1693
 14.5648  25.294
 14.6453  24.9818
 14.7258  24.784
 14.8063  24.638
 14.8868  24.4153
 14.9673  24.2906
 15.0478  24.4655
 15.1283  24.2995
 15.2088  24.5611
 15.2892  24.1604
 15.3698  24.2775
 15.4503  24.1302
 15.5308  24.0615
 15.6113  24.167
 15.6918  24.1569
 15.7723  24.2425
 15.8528  24.3226
 15.9332  24.2973
 16.0138  24.2483
 16.0943  24.4496
 16.1748  24.5422
 16.2553  24.864
 16.3358  24.6456
 16.4163  24.1562
 16.4967  24.3128
 16.5773  24.2267
 16.6578  24.2196
 16.7383  24.1938
 16.8188  23.9801
 16.8992  23.9473
 16.9798  23.9811
 17.0603  23.953
 17.1408  23.7786
 17.2213  23.72
 17.3017  23.7155
 17.3823  23.6604
 17.4628  23.6938
 17.5433  23.5318
 17.6238  23.5827
 17.7042  23.4924
 17.7847  23.5231
 17.8653  23.3829
 17.9458  23.2949
 18.0263  23.3663
 18.1068  23.3365
 18.1872  23.186
 18.2678  23.1209
 18.3483  23.0798
 18.4288  23.2031
 18.5093  23.1591
 18.5897  23.1312
 18.6703  23.0397
 18.7508  22.9876
 18.8313  23.1161
 18.9118  23.2489
 18.9922  22.975
 19.0727  23.1489
 19.1533  23.1657
 19.2338  23.2137
 19.3143  23.1301
 19.3948  23.1974
 19.4752  23.1903
 19.5558  23.2671
 19.6363  23.254
 19.7168  23.6587
 19.7973  23.5077
 19.8777  23.7233
 19.9582  23.2445
 20.0388  23.3449
 20.1193  23.3576
 20.1998  23.1971
 20.2803  23.3497
 20.3607  23.2574
 20.4413  23.3658
 20.5218  23.2531
 20.6023  23.3541
 20.6828  23.5262
 20.7632  23.684
 20.8438  23.4604
 20.9243  23.4074
 21.0048  23.4388
 21.0853  23.4703
 21.1658  23.4364
 21.2462  23.5373
 21.3268  23.4737
 21.4073  23.443
 21.4878  23.5899
 21.5683  23.607
 21.6487  23.7266
 21.7293  23.7351
 21.8098  23.6988
 21.8903  23.8583
 21.9708  23.8198
 22.0512  23.8478
 22.1318  23.9372
 22.2123  23.9042
 22.2928  24.0281
 22.3733  24.1489
 22.4538  24.167
 22.5343  24.3114
 22.6148  24.5178
 22.6953  24.6786
 22.7758  24.8398
 22.8563  25.1827
 22.9367  25.4931
 22.9943  25.6855

File: Data_0110.chi
F:\20151113_APS_34IDE\\Brian\Particle1\OCV\Data_0110.tif
2-Theta Angle (Degrees)
Intensity
       2000
 0.07475  0.0000000E+00
 0.15525  0.0000000E+00
 0.23575  0.0000000E+00
 0.31625  0.0000000E+00
 0.39675  0.0000000E+00
 0.47725  0.0000000E+00
 0.55775  0.0000000E+00
 0.63825  0.0000000E+00
 0.71875  0.0000000E+00
 0.79925  0.0000000E+00
 0.87975  0.0000000E+00
 0.96025  0.0000000E+00
 1.04075  0.0000000E+00
 1.12125  0.0000000E+00
 1.20175  0.0000000E+00
 1.28225  0.0000000E+00
 1.36275  0.0000000E+00
 1.44325  0.0000000E+00
 1.52375  0.0000000E+00
 1.60425  0.0000000E+00
 1.68475  0.0000000E+00
 1.76525  0.0000000E+00
 1.84575  0.0000000E+00
 1.92625  0.0000000E+00
 2.00675  0.0000000E+00
 2.08725  0.0000000E+00
 2.16775  0.0000000E+00
 2.24825  0.0000000E+00
 2.32875  0.0000000E+00
 2.40925  0.0000000E+00
 2.48975  0.0000000E+00
 2.57025  0.0000000E+00
 2.65075  0.0000000E+00
 2.73125  0.0000000E+00
 2.81175  0.0000000E+00
 2.89225  35.3945
 2.97275  34.9528
 3.05325  35.675
 3.13375  35.9621
 3.21425  35.492
 3.29475  34.8137
 3.37525  34.1208
 3.45575  33.8118
 3.53625  34.1413
 3.61675  33.9659
 3.69725  33.7675
 3.77775  32.9376
 3.85825  32.8494
 3.93875  32.5182
 4.01925  32.8868
 4.09975  32.3046
 4.18025  32.1524
 4.26075  32.4952
 4.34125  32.1537
 4.42175  32.3374
 4.50225  32.2919
 4.58275  32.9174
 4.66325  33.1104
 4.74375  32.7504
 4.82425  32.5031
 4.90475  32.8454
 4.98525  32.6774
 5.06575  33.4467
 5.14625  33.6243
 5.22675  33.7201
 5.30725  34.1923
 5.38775  34.3771
 5.46825  34.3746
 5.54875  34.6959
 5.62925  35.0114
 5.70975  35.0403
 5.79025  35.4353
 5.87075  36.0663
 5.95125  38.0622
 6.03175  36.9087
 6.11225  36.4941
 6.19275  36.7108
 6.27325  37.1905
 6.35375  37.8006
 6.43425  38.2616
 6.51475  39.0233
 6.59525  39.4051
 6.67575  39.9304
 6.75625  40.6882
 6.83675  41.3206
 6.91725  42.0316
 6.99775  42.3389
 7.07825  42.431
 7.15875  43.0273
 7.23925  43.2603
 7.31975  43.3679
 7.40025  44.1495
 7.48075  44.316
 7.56125  44.4871
 7.64175  44.1095
 7.72225  44.3139
 7.80275  43.9771
 7.88325  43.7927
 7.96375  43.6385
 8.04425  43.2221
 8.12475  42.5681
 8.20525  41.7397
 8.28575  40.8185
 8.36625  39.8649
 8.44675  38.4627
 8.52725  37.3724
 8.60775  36.1523
 8.68825  35.0831
 8.76875  33.7014
 8.84925  32.6563
 8.92975  31.681
 9.01025  30.5527
 9.09075  29.7772
 9.17125  28.8781
 9.25175  28.0055
 9.33225  27.3794
 9.41275  26.8039
 9.49325  26.4577
 9.57375  25.5968
 9.65425  25.4354
 9.73475  25.0153
 9.81525  24.8363
 9.89575  24.5485
 9.97625  24.1472
 10.0567  23.8892
 10.1373  23.6104
 10.2178  23.6176
 10.2982  23.3182
 10.3788  23.0729
 10.4593  23.0424
 10.5397  23.0525
 10.6203  22.8056
 10.7007  22.8087
 10.7813  22.5146
 10.8618  22.5201
 10.9422  22.4591
 11.0228  22.3258
 11.1033  22.1976
 11.1837  22.3392
 11.2643  22.1765
 11.3447  22.2209
 11.4253  22.5866
 11.5058  22.3843
 11.5862  26.1572
 11.6668  22.4393
 11.7473  22.2194
 11.8277  22.2501
 11.9083  22.0824
 11.9887  22.4129
 12.0693  22.5233
 12.1498  22.4604
 12.2302  22.1904
 12.3108  22.2727
 12.3913  22.1677
 12.4718  22.3313
 12.5523  22.3862
 12.6328  22.4639
 12.7133  22.7114
 12.7938  22.8785
 12.8742  23.1025
 12.9548  23.6764
 13.0353  23.999
 13.1158  24.6788
 13.1963  25.3298
 13.2768  26.4043
 13.3573  27.4941
 13.4378  28.4419
 13.5183  28.9973
 13.5988  29.2573
 13.6793  29.3686
 13.7598  28.8371
 13.8403  28.6029
 13.9208  29.229
 14.0013  28.1307
 14.0818  27.1692
 14.1623  26.735
 14.2428  26.1871
 14.3233  25.7486
 14.4038  25.664
 14.4843  25.3142
 14.5648  25.3059
 14.6453  24.9866
 14.7258  24.878
 14.8063  24.6993
 14.8868  24.5502
 14.9673  24.6041
 15.0478  24.7057
 15.1283  25.5191
 15.2088  27.5393
 15.2892  24.4648
 15.3698  24.4184
 15.4503  24.2911
 15.5308  24.1802
 15.6113  24.1995
 15.6918  24.2931
 15.7723  24.372
 15.8528  24.3008
 15.9332  24.3471
 16.0138  24.3978
 16.0943  24.3801
 16.1748  24.6223
 16.2553  24.9094
 16.3358  24.482
 16.4163  24.3671
 16.4967  24.2937
 16.5773  24.2972
 16.6578  24.2564
 16.7383  24.2172
 16.8188  24.1282
 16.8992  24.1259
 16.9798  24.0598
 17.0603  23.9097
 17.1408  23.9803
 17.2213  23.8783
 17.3017  23.8212
 17.3823  23.6933
 17.4628  23.6457
 17.5433  23.569
 17.6238  23.6183
 17.7042  23.4754
 17.7847  23.5726
 17.8653  23.5129
 17.9458  23.5682
 18.0263  24.0696
 18.1068  26.5902
 18.1872  23.5004
 18.2678  23.3843
 18.3483  23.223
 18.4288  23.0453
 18.5093  23.2432
 18.5897  23.2779
 18.6703  23.1482
 18.7508  23.0475
 18.8313  23.1657
 18.9118  23.0861
 18.9922  23.1097
 19.0727  23.1691
 19.1533  23.2424
 19.2338  23.2269
 19.3143  23.2243
 19.3948  23.2016
 19.4752  23.2113
 19.5558  23.2224
 19.6363  23.2802
 19.7168  23.8748
 19.7973  23.5726
 19.8777  23.7121
 19.9582  23.3145
 20.0388  23.3571
 20.1193  23.3161
 20.1998  23.5099
 20.2803  23.4257
 20.3607  23.4597
 20.4413  23.4578
 20.5218  23.3967
 20.6023  23.5652
 20.6828  23.5984
 20.7632  24.0114
 20.8438  23.5831
 20.9243  23.6083
 21.0048  23.496
 21.0853  23.5261
 21.1658  23.5477
 21.2462  23.4625
 21.3268  23.5981
 21.4073  23.7187
 21.4878  23.6297
 21.5683  23.6695
 21.6487  23.8277
 21.7293  23.7406
 21.8098  23.8142
 21.8903  23.9051
 21.9708  23.8469
 22.0512  23.8849
 22.1318  23.9753
 22.2123  24.0241
 22.2928  24.139
 22.3733  24.132
 22.4538  24.2744
 22.5343  24.4228
 22.6148  24.5996
 22.6953  24.7263
 22.7758  24.8884
 22.8563  25.0944
 22.9367  25.6561
 22.9943  25.9278