Folder: scimap-tests/test-data-xrd/xrd-map-34-ID-E (part 24)

File: Data_0098.chi
F:\20151113_APS_34IDE\\Brian\Particle1\OCV\Data_0098.tif
2-Theta Angle (Degrees)
Intensity
       2000
 0.07475  0.0000000E+00
 0.15525  0.0000000E+00
 0.23575  0.0000000E+00
 0.31625  0.0000000E+00
 0.39675  0.0000000E+00
 0.47725  0.0000000E+00
 0.55775  0.0000000E+00
 0.63825  0.0000000E+00
 0.71875  0.0000000E+00
 0.79925  0.0000000E+00
 0.87975  0.0000000E+00
 0.96025  0.0000000E+00
 1.04075  0.0000000E+00
 1.12125  0.0000000E+00
 1.20175  0.0000000E+00
 1.28225  0.0000000E+00
 1.36275  0.0000000E+00
 1.44325  0.0000000E+00
 1.52375  0.0000000E+00
 1.60425  0.0000000E+00
 1.68475  0.0000000E+00
 1.76525  0.0000000E+00
 1.84575  0.0000000E+00
 1.92625  0.0000000E+00
 2.00675  0.0000000E+00
 2.08725  0.0000000E+00
 2.16775  0.0000000E+00
 2.24825  0.0000000E+00
 2.32875  0.0000000E+00
 2.40925  0.0000000E+00
 2.48975  0.0000000E+00
 2.57025  0.0000000E+00
 2.65075  0.0000000E+00
 2.73125  0.0000000E+00
 2.81175  0.0000000E+00
 2.89225  35.9233
 2.97275  36.5497
 3.05325  36.1077
 3.13375  35.5951
 3.21425  36.0194
 3.29475  36.2732
 3.37525  35.9462
 3.45575  34.7479
 3.53625  33.7224
 3.61675  33.7206
 3.69725  33.2141
 3.77775  33.4223
 3.85825  32.9026
 3.93875  33.5231
 4.01925  33.135
 4.09975  32.3658
 4.18025  32.4424
 4.26075  32.3789
 4.34125  32.3424
 4.42175  32.833
 4.50225  33.1187
 4.58275  33.1597
 4.66325  33.5749
 4.74375  33.1167
 4.82425  32.9522
 4.90475  33.332
 4.98525  33.185
 5.06575  33.6882
 5.14625  34.0582
 5.22675  34.1462
 5.30725  34.4425
 5.38775  35.0511
 5.46825  34.9372
 5.54875  35.0464
 5.62925  35.6625
 5.70975  35.6134
 5.79025  36.1283
 5.87075  36.3169
 5.95125  38.1457
 6.03175  37.963
 6.11225  36.9159
 6.19275  37.3372
 6.27325  37.9792
 6.35375  38.1896
 6.43425  39.0311
 6.51475  39.5917
 6.59525  40.177
 6.67575  40.6476
 6.75625  41.1788
 6.83675  41.9642
 6.91725  42.4485
 6.99775  43.0747
 7.07825  43.1963
 7.15875  43.7392
 7.23925  44.0512
 7.31975  44.5881
 7.40025  44.7708
 7.48075  44.6309
 7.56125  44.8271
 7.64175  44.6242
 7.72225  44.9156
 7.80275  45.0438
 7.88325  44.5553
 7.96375  44.1292
 8.04425  44.2259
 8.12475  43.2871
 8.20525  42.6402
 8.28575  41.6215
 8.36625  40.7657
 8.44675  39.4119
 8.52725  37.8917
 8.60775  36.7907
 8.68825  35.5691
 8.76875  34.2817
 8.84925  33.2225
 8.92975  32.1665
 9.01025  31.2169
 9.09075  30.3255
 9.17125  29.227
 9.25175  28.18
 9.33225  27.6221
 9.41275  27.0774
 9.49325  26.8754
 9.57375  26.1083
 9.65425  25.8179
 9.73475  25.288
 9.81525  25.2129
 9.89575  24.7554
 9.97625  24.5151
 10.0567  24.3079
 10.1373  23.9972
 10.2178  23.9093
 10.2982  23.6725
 10.3788  23.4657
 10.4593  23.2919
 10.5397  23.2085
 10.6203  22.921
 10.7007  22.963
 10.7813  22.906
 10.8618  22.8346
 10.9422  22.8605
 11.0228  22.6918
 11.1033  22.5761
 11.1837  22.4025
 11.2643  22.4404
 11.3447  22.4521
 11.4253  22.6265
 11.5058  22.6027
 11.5862  25.0382
 11.6668  22.6925
 11.7473  22.2816
 11.8277  22.4137
 11.9083  22.4388
 11.9887  22.6842
 12.0693  22.6061
 12.1498  22.7131
 12.2302  22.2282
 12.3108  22.5276
 12.3913  22.5507
 12.4718  22.6358
 12.5523  22.6625
 12.6328  22.8318
 12.7133  22.8884
 12.7938  23.1142
 12.8742  23.4232
 12.9548  23.8398
 13.0353  24.1487
 13.1158  25.1972
 13.1963  25.8249
 13.2768  26.7485
 13.3573  27.7105
 13.4378  28.7482
 13.5183  29.5444
 13.5988  29.8614
 13.6793  29.7506
 13.7598  29.5594
 13.8403  29.1194
 13.9208  30.0786
 14.0013  29.455
 14.0818  27.4344
 14.1623  26.9637
 14.2428  26.7999
 14.3233  26.191
 14.4038  25.9855
 14.4843  25.7433
 14.5648  25.5659
 14.6453  25.4366
 14.7258  25.2084
 14.8063  25.0353
 14.8868  24.9695
 14.9673  24.7428
 15.0478  24.7702
 15.1283  24.7237
 15.2088  25.242
 15.2892  24.7167
 15.3698  24.6227
 15.4503  24.5962
 15.5308  24.5443
 15.6113  24.3702
 15.6918  24.5842
 15.7723  24.6207
 15.8528  24.6392
 15.9332  24.701
 16.0138  24.768
 16.0943  24.7547
 16.1748  24.8355
 16.2553  25.1548
 16.3358  24.9954
 16.4163  24.7103
 16.4967  24.5374
 16.5773  24.5742
 16.6578  24.4567
 16.7383  24.3509
 16.8188  24.3919
 16.8992  24.3285
 16.9798  24.1807
 17.0603  24.1494
 17.1408  24.1304
 17.2213  24.2014
 17.3017  24.0592
 17.3823  23.9276
 17.4628  23.8327
 17.5433  23.8187
 17.6238  23.7323
 17.7042  23.6535
 17.7847  23.7816
 17.8653  23.6241
 17.9458  23.6799
 18.0263  23.7771
 18.1068  23.9091
 18.1872  23.4925
 18.2678  23.3984
 18.3483  23.4495
 18.4288  23.3444
 18.5093  23.5501
 18.5897  23.4337
 18.6703  23.4235
 18.7508  23.4057
 18.8313  23.305
 18.9118  23.4971
 18.9922  23.359
 19.0727  23.411
 19.1533  23.491
 19.2338  23.394
 19.3143  23.5177
 19.3948  23.5282
 19.4752  23.445
 19.5558  23.5107
 19.6363  23.5551
 19.7168  24.1761
 19.7973  23.8587
 19.8777  24.0877
 19.9582  23.6097
 20.0388  23.4829
 20.1193  23.7343
 20.1998  23.5393
 20.2803  23.5592
 20.3607  23.5472
 20.4413  23.6928
 20.5218  23.5711
 20.6023  23.7826
 20.6828  23.8086
 20.7632  24.1684
 20.8438  23.6589
 20.9243  23.7696
 21.0048  23.7726
 21.0853  23.7634
 21.1658  23.6752
 21.2462  23.7281
 21.3268  23.8325
 21.4073  23.9992
 21.4878  23.8397
 21.5683  23.8759
 21.6487  23.9761
 21.7293  24.0511
 21.8098  23.879
 21.8903  24.1177
 21.9708  24.0989
 22.0512  24.2056
 22.1318  24.2603
 22.2123  24.2035
 22.2928  24.3396
 22.3733  24.3
 22.4538  24.3978
 22.5343  24.7056
 22.6148  24.7504
 22.6953  25.0237
 22.7758  25.0774
 22.8563  25.2875
 22.9367  25.7121
 22.9943  26.1302

File: Data_0100.chi
F:\20151113_APS_34IDE\\Brian\Particle1\OCV\Data_0100.tif
2-Theta Angle (Degrees)
Intensity
       2000
 0.07475  0.0000000E+00
 0.15525  0.0000000E+00
 0.23575  0.0000000E+00
 0.31625  0.0000000E+00
 0.39675  0.0000000E+00
 0.47725  0.0000000E+00
 0.55775  0.0000000E+00
 0.63825  0.0000000E+00
 0.71875  0.0000000E+00
 0.79925  0.0000000E+00
 0.87975  0.0000000E+00
 0.96025  0.0000000E+00
 1.04075  0.0000000E+00
 1.12125  0.0000000E+00
 1.20175  0.0000000E+00
 1.28225  0.0000000E+00
 1.36275  0.0000000E+00
 1.44325  0.0000000E+00
 1.52375  0.0000000E+00
 1.60425  0.0000000E+00
 1.68475  0.0000000E+00
 1.76525  0.0000000E+00
 1.84575  0.0000000E+00
 1.92625  0.0000000E+00
 2.00675  0.0000000E+00
 2.08725  0.0000000E+00
 2.16775  0.0000000E+00
 2.24825  0.0000000E+00
 2.32875  0.0000000E+00
 2.40925  0.0000000E+00
 2.48975  0.0000000E+00
 2.57025  0.0000000E+00
 2.65075  0.0000000E+00
 2.73125  0.0000000E+00
 2.81175  0.0000000E+00
 2.89225  36.3997
 2.97275  35.5129
 3.05325  34.9584
 3.13375  35.4597
 3.21425  35.3948
 3.29475  35.0074
 3.37525  34.8621
 3.45575  34.9267
 3.53625  33.9982
 3.61675  34.0377
 3.69725  34.0086
 3.77775  33.4016
 3.85825  32.8901
 3.93875  32.6689
 4.01925  33.1825
 4.09975  32.4573
 4.18025  32.4005
 4.26075  32.6949
 4.34125  32.4222
 4.42175  32.9395
 4.50225  32.9086
 4.58275  32.6434
 4.66325  33.3366
 4.74375  33.1945
 4.82425  33.2131
 4.90475  33.1782
 4.98525  33.313
 5.06575  33.7504
 5.14625  33.8916
 5.22675  34.1402
 5.30725  34.6152
 5.38775  34.8825
 5.46825  35.4663
 5.54875  35.1076
 5.62925  35.5998
 5.70975  35.9726
 5.79025  36.1284
 5.87075  36.9279
 5.95125  45.1499
 6.03175  52.4905
 6.11225  37.7708
 6.19275  37.8274
 6.27325  38.3104
 6.35375  38.5711
 6.43425  38.9019
 6.51475  39.4102
 6.59525  39.8201
 6.67575  40.5
 6.75625  41.1808
 6.83675  41.6476
 6.91725  42.3749
 6.99775  42.8199
 7.07825  43.1483
 7.15875  43.6303
 7.23925  44.0065
 7.31975  44.2032
 7.40025  44.4839
 7.48075  44.6753
 7.56125  44.6576
 7.64175  44.8306
 7.72225  44.7673
 7.80275  44.5517
 7.88325  44.683
 7.96375  44.229
 8.04425  43.8327
 8.12475  42.9623
 8.20525  42.3117
 8.28575  41.1864
 8.36625  40.3436
 8.44675  39.0784
 8.52725  38.2625
 8.60775  36.8074
 8.68825  35.68
 8.76875  34.3594
 8.84925  33.1748
 8.92975  32.1032
 9.01025  30.9615
 9.09075  30.2445
 9.17125  29.203
 9.25175  28.363
 9.33225  27.773
 9.41275  27.3696
 9.49325  26.7951
 9.57375  26.2347
 9.65425  25.7267
 9.73475  25.4265
 9.81525  25.1247
 9.89575  24.8968
 9.97625  24.6675
 10.0567  24.2992
 10.1373  24.0181
 10.2178  23.9797
 10.2982  23.7445
 10.3788  23.6258
 10.4593  23.5787
 10.5397  23.5481
 10.6203  23.2734
 10.7007  23.202
 10.7813  23.0481
 10.8618  23.0346
 10.9422  22.5824
 11.0228  22.8235
 11.1033  22.6826
 11.1837  22.7019
 11.2643  22.7454
 11.3447  22.6118
 11.4253  22.9073
 11.5058  23.2253
 11.5862  29.4485
 11.6668  24.4706
 11.7473  23.0325
 11.8277  22.8842
 11.9083  23.0528
 11.9887  26.9556
 12.0693  26.6071
 12.1498  25.2709
 12.2302  22.8579
 12.3108  22.9657
 12.3913  22.7685
 12.4718  22.8262
 12.5523  22.7584
 12.6328  22.9319
 12.7133  23.0146
 12.7938  23.3193
 12.8742  23.6764
 12.9548  23.9622
 13.0353  24.3533
 13.1158  25.0321
 13.1963  25.7146
 13.2768  26.8726
 13.3573  28.146
 13.4378  28.9412
 13.5183  29.4253
 13.5988  29.8143
 13.6793  29.9928
 13.7598  29.7331
 13.8403  29.5059
 13.9208  31.6132
 14.0013  30.2209
 14.0818  27.7746
 14.1623  27.4044
 14.2428  26.8673
 14.3233  26.5169
 14.4038  26.2849
 14.4843  25.8041
 14.5648  25.7057
 14.6453  25.6247
 14.7258  25.2318
 14.8063  25.1857
 14.8868  25.1273
 14.9673  24.9584
 15.0478  25.1057
 15.1283  25.6247
 15.2088  27.7137
 15.2892  25.193
 15.3698  24.8006
 15.4503  24.6947
 15.5308  24.8262
 15.6113  24.825
 15.6918  24.7819
 15.7723  24.7517
 15.8528  24.6976
 15.9332  24.841
 16.0138  24.7823
 16.0943  24.9224
 16.1748  25.2382
 16.2553  28.8656
 16.3358  25.3286
 16.4163  24.9972
 16.4967  24.8014
 16.5773  24.816
 16.6578  24.6775
 16.7383  24.6914
 16.8188  24.4974
 16.8992  24.5706
 16.9798  24.4855
 17.0603  24.3087
 17.1408  24.2358
 17.2213  24.6676
 17.3017  24.2257
 17.3823  24.133
 17.4628  24.0326
 17.5433  23.9981
 17.6238  24.0506
 17.7042  23.9671
 17.7847  23.906
 17.8653  23.9798
 17.9458  23.9715
 18.0263  24.3302
 18.1068  25.621
 18.1872  24.5087
 18.2678  23.8289
 18.3483  23.7937
 18.4288  23.7682
 18.5093  23.765
 18.5897  23.731
 18.6703  23.5914
 18.7508  23.6325
 18.8313  23.6123
 18.9118  23.6509
 18.9922  23.6167
 19.0727  23.7128
 19.1533  23.7102
 19.2338  23.7074
 19.3143  23.7175
 19.3948  23.7219
 19.4752  23.8306
 19.5558  23.8675
 19.6363  24.2327
 19.7168  25.9652
 19.7973  26.1238
 19.8777  31.3535
 19.9582  24.4407
 20.0388  23.9503
 20.1193  23.9141
 20.1998  23.9826
 20.2803  23.8625
 20.3607  23.9847
 20.4413  23.9251
 20.5218  23.8192
 20.6023  24.0532
 20.6828  24.5603
 20.7632  27.5568
 20.8438  24.5638
 20.9243  24.1979
 21.0048  24.0333
 21.0853  24.0588
 21.1658  23.9402
 21.2462  23.9783
 21.3268  23.9642
 21.4073  24.0082
 21.4878  24.0695
 21.5683  24.0937
 21.6487  24.1886
 21.7293  24.2156
 21.8098  24.2161
 21.8903  24.3072
 21.9708  24.3054
 22.0512  24.3165
 22.1318  24.515
 22.2123  24.3763
 22.2928  24.4909
 22.3733  24.6592
 22.4538  24.7807
 22.5343  24.8332
 22.6148  25.0057
 22.6953  25.3249
 22.7758  25.3406
 22.8563  25.7262
 22.9367  26.0621
 22.9943  26.4996

File: Data_0101.chi
F:\20151113_APS_34IDE\\Brian\Particle1\OCV\Data_0101.tif
2-Theta Angle (Degrees)
Intensity
       2000
 0.07475  0.0000000E+00
 0.15525  0.0000000E+00
 0.23575  0.0000000E+00
 0.31625  0.0000000E+00
 0.39675  0.0000000E+00
 0.47725  0.0000000E+00
 0.55775  0.0000000E+00
 0.63825  0.0000000E+00
 0.71875  0.0000000E+00
 0.79925  0.0000000E+00
 0.87975  0.0000000E+00
 0.96025  0.0000000E+00
 1.04075  0.0000000E+00
 1.12125  0.0000000E+00
 1.20175  0.0000000E+00
 1.28225  0.0000000E+00
 1.36275  0.0000000E+00
 1.44325  0.0000000E+00
 1.52375  0.0000000E+00
 1.60425  0.0000000E+00
 1.68475  0.0000000E+00
 1.76525  0.0000000E+00
 1.84575  0.0000000E+00
 1.92625  0.0000000E+00
 2.00675  0.0000000E+00
 2.08725  0.0000000E+00
 2.16775  0.0000000E+00
 2.24825  0.0000000E+00
 2.32875  0.0000000E+00
 2.40925  0.0000000E+00
 2.48975  0.0000000E+00
 2.57025  0.0000000E+00
 2.65075  0.0000000E+00
 2.73125  0.0000000E+00
 2.81175  0.0000000E+00
 2.89225  34.6291
 2.97275  36.125
 3.05325  34.9784
 3.13375  35.9996
 3.21425  36.0663
 3.29475  36.1029
 3.37525  35.546
 3.45575  34.7359
 3.53625  35.1546
 3.61675  32.6917
 3.69725  32.667
 3.77775  32.9803
 3.85825  32.9904
 3.93875  33.0232
 4.01925  32.7502
 4.09975  32.3408
 4.18025  32.5384
 4.26075  32.932
 4.34125  32.3221
 4.42175  32.5098
 4.50225  32.9159
 4.58275  32.8759
 4.66325  32.9206
 4.74375  32.6474
 4.82425  32.7581
 4.90475  32.7066
 4.98525  32.9399
 5.06575  33.45
 5.14625  33.8102
 5.22675  33.9932
 5.30725  34.2956
 5.38775  34.3549
 5.46825  34.6699
 5.54875  34.9402
 5.62925  35.0918
 5.70975  35.6994
 5.79025  36.0217
 5.87075  36.6102
 5.95125  47.5288
 6.03175  44.3148
 6.11225  37.223
 6.19275  37.5678
 6.27325  38.1581
 6.35375  38.4377
 6.43425  38.9799
 6.51475  39.358
 6.59525  39.939
 6.67575  40.6205
 6.75625  40.9856
 6.83675  41.7658
 6.91725  42.5501
 6.99775  42.7208
 7.07825  43.1181
 7.15875  43.568
 7.23925  43.7353
 7.31975  43.8127
 7.40025  44.5752
 7.48075  44.6169
 7.56125  44.5968
 7.64175  44.5936
 7.72225  44.8149
 7.80275  44.5382
 7.88325  44.3238
 7.96375  43.8596
 8.04425  43.4198
 8.12475  43.2765
 8.20525  42.2698
 8.28575  41.3217
 8.36625  40.3472
 8.44675  39.3356
 8.52725  37.9467
 8.60775  36.4276
 8.68825  35.354
 8.76875  34.2899
 8.84925  33.0049
 8.92975  31.8253
 9.01025  30.6309
 9.09075  30.0006
 9.17125  29.0277
 9.25175  28.4028
 9.33225  27.5084
 9.41275  27.0443
 9.49325  26.4929
 9.57375  26.1793
 9.65425  25.7817
 9.73475  25.3392
 9.81525  25.0771
 9.89575  24.9181
 9.97625  24.5826
 10.0567  24.2443
 10.1373  24.1333
 10.2178  23.823
 10.2982  23.7903
 10.3788  23.58
 10.4593  23.3637
 10.5397  23.3748
 10.6203  23.3436
 10.7007  23.0413
 10.7813  22.8603
 10.8618  22.7516
 10.9422  22.7981
 11.0228  22.6619
 11.1033  22.6439
 11.1837  22.7294
 11.2643  22.6991
 11.3447  22.6654
 11.4253  22.8041
 11.5058  23.4248
 11.5862  32.123
 11.6668  24.1775
 11.7473  22.6113
 11.8277  22.5942
 11.9083  22.673
 11.9887  23.808
 12.0693  24.0313
 12.1498  23.9193
 12.2302  22.6337
 12.3108  22.7135
 12.3913  22.6861
 12.4718  22.7891
 12.5523  22.9134
 12.6328  22.8739
 12.7133  23.0942
 12.7938  23.1852
 12.8742  23.5609
 12.9548  23.9835
 13.0353  24.2123
 13.1158  25.0786
 13.1963  25.6912
 13.2768  26.8622
 13.3573  27.9096
 13.4378  28.8043
 13.5183  29.5208
 13.5988  29.8743
 13.6793  30.1793
 13.7598  29.8415
 13.8403  30.3904
 13.9208  44.7873
 14.0013  43.4581
 14.0818  28.8569
 14.1623  27.6181
 14.2428  26.9272
 14.3233  26.4661
 14.4038  26.28
 14.4843  25.789
 14.5648  25.6389
 14.6453  25.5217
 14.7258  25.3937
 14.8063  25.3664
 14.8868  25.1556
 14.9673  25.0592
 15.0478  25.0078
 15.1283  25.3455
 15.2088  27.0127
 15.2892  24.886
 15.3698  24.7625
 15.4503  24.7504
 15.5308  24.6603
 15.6113  24.4486
 15.6918  24.734
 15.7723  24.8108
 15.8528  24.7736
 15.9332  24.7733
 16.0138  24.8384
 16.0943  24.8861
 16.1748  25.1423
 16.2553  27.7893
 16.3358  25.286
 16.4163  24.9688
 16.4967  24.9198
 16.5773  24.7409
 16.6578  24.6481
 16.7383  24.8142
 16.8188  24.5371
 16.8992  24.508
 16.9798  24.3376
 17.0603  24.3723
 17.1408  24.4187
 17.2213  24.4114
 17.3017  24.268
 17.3823  24.1969
 17.4628  24.122
 17.5433  24.0479
 17.6238  24.0725
 17.7042  23.9717
 17.7847  23.9195
 17.8653  24.0033
 17.9458  24.0702
 18.0263  25.4161
 18.1068  26.1448
 18.1872  24.2441
 18.2678  23.7962
 18.3483  23.7782
 18.4288  23.7371
 18.5093  23.5154
 18.5897  23.8082
 18.6703  23.6845
 18.7508  23.6824
 18.8313  23.7129
 18.9118  23.6073
 18.9922  23.6436
 19.0727  23.648
 19.1533  23.776
 19.2338  23.5362
 19.3143  23.7117
 19.3948  23.7802
 19.4752  23.9332
 19.5558  23.8718
 19.6363  24.5457
 19.7168  28.7478
 19.7973  27.168
 19.8777  30.5883
 19.9582  24.6145
 20.0388  23.9949
 20.1193  24.0309
 20.1998  23.9752
 20.2803  23.8937
 20.3607  23.8085
 20.4413  23.9079
 20.5218  23.8768
 20.6023  24.2079
 20.6828  24.822
 20.7632  31.8672
 20.8438  25.1315
 20.9243  24.3059
 21.0048  24.1652
 21.0853  24.0903
 21.1658  23.9007
 21.2462  23.9795
 21.3268  23.9808
 21.4073  24.0344
 21.4878  23.9482
 21.5683  24.1416
 21.6487  24.2649
 21.7293  24.3377
 21.8098  24.287
 21.8903  24.2684
 21.9708  24.1758
 22.0512  24.3315
 22.1318  24.4249
 22.2123  24.4299
 22.2928  24.5891
 22.3733  24.5802
 22.4538  24.8033
 22.5343  24.7448
 22.6148  24.9381
 22.6953  25.2555
 22.7758  25.2296
 22.8563  25.6923
 22.9367  26.0868
 22.9943  26.3738

File: Data_0102.chi
F:\20151113_APS_34IDE\\Brian\Particle1\OCV\Data_0102.tif
2-Theta Angle (Degrees)
Intensity
       2000
 0.07475  0.0000000E+00
 0.15525  0.0000000E+00
 0.23575  0.0000000E+00
 0.31625  0.0000000E+00
 0.39675  0.0000000E+00
 0.47725  0.0000000E+00
 0.55775  0.0000000E+00
 0.63825  0.0000000E+00
 0.71875  0.0000000E+00
 0.79925  0.0000000E+00
 0.87975  0.0000000E+00
 0.96025  0.0000000E+00
 1.04075  0.0000000E+00
 1.12125  0.0000000E+00
 1.20175  0.0000000E+00
 1.28225  0.0000000E+00
 1.36275  0.0000000E+00
 1.44325  0.0000000E+00
 1.52375  0.0000000E+00
 1.60425  0.0000000E+00
 1.68475  0.0000000E+00
 1.76525  0.0000000E+00
 1.84575  0.0000000E+00
 1.92625  0.0000000E+00
 2.00675  0.0000000E+00
 2.08725  0.0000000E+00
 2.16775  0.0000000E+00
 2.24825  0.0000000E+00
 2.32875  0.0000000E+00
 2.40925  0.0000000E+00
 2.48975  0.0000000E+00
 2.57025  0.0000000E+00
 2.65075  0.0000000E+00
 2.73125  0.0000000E+00
 2.81175  0.0000000E+00
 2.89225  35.0928
 2.97275  36.2404
 3.05325  36.3592
 3.13375  35.242
 3.21425  35.6463
 3.29475  36.2324
 3.37525  34.5713
 3.45575  35.7429
 3.53625  34.5845
 3.61675  33.5017
 3.69725  33.2961
 3.77775  33.3802
 3.85825  33.5116
 3.93875  32.6185
 4.01925  32.8941
 4.09975  32.5828
 4.18025  32.5019
 4.26075  32.4914
 4.34125  32.879
 4.42175  32.6519
 4.50225  32.3781
 4.58275  32.8765
 4.66325  32.6458
 4.74375  32.9436
 4.82425  32.7388
 4.90475  33.1078
 4.98525  33.1698
 5.06575  33.8817
 5.14625  33.6534
 5.22675  34.2259
 5.30725  34.4727
 5.38775  34.419
 5.46825  35.1197
 5.54875  35.2403
 5.62925  35.2398
 5.70975  35.8762
 5.79025  36.1982
 5.87075  36.6261
 5.95125  44.3267
 6.03175  41.1393
 6.11225  37.0818
 6.19275  37.447
 6.27325  37.7411
 6.35375  38.2322
 6.43425  38.8609
 6.51475  39.6699
 6.59525  39.9791
 6.67575  40.8417
 6.75625  41.3468
 6.83675  41.3991
 6.91725  42.2591
 6.99775  42.9611
 7.07825  43.5079
 7.15875  43.6477
 7.23925  43.8288
 7.31975  44.2363
 7.40025  44.3507
 7.48075  44.309
 7.56125  44.6274
 7.64175  44.3767
 7.72225  44.7717
 7.80275  44.3254
 7.88325  44.0304
 7.96375  44.0653
 8.04425  43.5288
 8.12475  42.7393
 8.20525  41.7764
 8.28575  41.0189
 8.36625  40.29
 8.44675  38.9254
 8.52725  37.8865
 8.60775  36.4548
 8.68825  35.1117
 8.76875  33.8223
 8.84925  33.0346
 8.92975  31.7835
 9.01025  30.6694
 9.09075  29.5932
 9.17125  28.8369
 9.25175  28.2244
 9.33225  27.4213
 9.41275  26.9953
 9.49325  26.2696
 9.57375  26.159
 9.65425  25.4957
 9.73475  25.1612
 9.81525  24.9343
 9.89575  24.5189
 9.97625  24.3905
 10.0567  24.245
 10.1373  23.9842
 10.2178  23.7008
 10.2982  23.6829
 10.3788  23.411
 10.4593  23.3129
 10.5397  23.2665
 10.6203  23.1147
 10.7007  23.0706
 10.7813  22.8196
 10.8618  22.8332
 10.9422  22.7985
 11.0228  22.7344
 11.1033  22.6546
 11.1837  22.4933
 11.2643  22.4275
 11.3447  22.5864
 11.4253  22.8626
 11.5058  23.322
 11.5862  33.1518
 11.6668  25.2127
 11.7473  22.8515
 11.8277  22.537
 11.9083  22.454
 11.9887  22.9947
 12.0693  23.4847
 12.1498  23.3375
 12.2302  22.5574
 12.3108  22.5176
 12.3913  22.6302
 12.4718  22.5716
 12.5523  22.7297
 12.6328  22.7812
 12.7133  22.8682
 12.7938  23.1455
 12.8742  23.3785
 12.9548  23.8184
 13.0353  24.1625
 13.1158  24.904
 13.1963  25.7996
 13.2768  26.6735
 13.3573  27.6295
 13.4378  28.6806
 13.5183  29.5459
 13.5988  29.8824
 13.6793  29.7525
 13.7598  29.6661
 13.8403  29.5739
 13.9208  33.8984
 14.0013  33.8145
 14.0818  28.1007
 14.1623  27.2214
 14.2428  26.6951
 14.3233  26.3762
 14.4038  25.9973
 14.4843  25.7368
 14.5648  25.6345
 14.6453  25.2189
 14.7258  25.2394
 14.8063  25.1495
 14.8868  25.0804
 14.9673  24.9603
 15.0478  24.8729
 15.1283  25.1496
 15.2088  26.5726
 15.2892  24.8032
 15.3698  24.7203
 15.4503  24.5812
 15.5308  24.6711
 15.6113  24.4235
 15.6918  24.6808
 15.7723  24.675
 15.8528  24.7099
 15.9332  24.5391
 16.0138  24.6836
 16.0943  24.7368
 16.1748  25.0887
 16.2553  27.1947
 16.3358  25.1441
 16.4163  24.9355
 16.4967  24.6473
 16.5773  24.65
 16.6578  24.6368
 16.7383  24.5097
 16.8188  24.4252
 16.8992  24.2795
 16.9798  24.343
 17.0603  24.3327
 17.1408  24.2699
 17.2213  24.2422
 17.3017  24.208
 17.3823  24.0616
 17.4628  24.0759
 17.5433  23.9818
 17.6238  24.1029
 17.7042  23.9179
 17.7847  23.9279
 17.8653  23.9612
 17.9458  24.1563
 18.0263  25.7448
 18.1068  34.2979
 18.1872  25.5103
 18.2678  23.9039
 18.3483  23.8271
 18.4288  23.6482
 18.5093  23.6625
 18.5897  23.5398
 18.6703  23.4274
 18.7508  23.5912
 18.8313  23.6021
 18.9118  23.5216
 18.9922  23.5317
 19.0727  23.6944
 19.1533  23.6153
 19.2338  23.4811
 19.3143  23.5851
 19.3948  23.6135
 19.4752  23.744
 19.5558  23.7424
 19.6363  24.141
 19.7168  27.9887
 19.7973  25.9774
 19.8777  28.5988
 19.9582  24.3666
 20.0388  23.7352
 20.1193  23.8838
 20.1998  23.7276
 20.2803  23.8145
 20.3607  23.7859
 20.4413  23.9134
 20.5218  23.7444
 20.6023  24.1253
 20.6828  24.7873
 20.7632  31.7582
 20.8438  24.8069
 20.9243  24.2078
 21.0048  24.0721
 21.0853  23.9765
 21.1658  23.8641
 21.2462  23.8902
 21.3268  23.8886
 21.4073  23.9491
 21.4878  23.918
 21.5683  23.9667
 21.6487  24.0367
 21.7293  24.1668
 21.8098  24.0513
 21.8903  24.1824
 21.9708  24.2693
 22.0512  24.3105
 22.1318  24.3983
 22.2123  24.2725
 22.2928  24.5174
 22.3733  24.4706
 22.4538  24.6584
 22.5343  24.8361
 22.6148  24.904
 22.6953  25.177
 22.7758  25.2721
 22.8563  25.574
 22.9367  26.0224
 22.9943  26.4808