Folder: scimap-tests/test-data-xrd/xrd-map-34-ID-E (part 25)

File: Data_0103.chi
F:\20151113_APS_34IDE\\Brian\Particle1\OCV\Data_0103.tif
2-Theta Angle (Degrees)
Intensity
       2000
 0.07475  0.0000000E+00
 0.15525  0.0000000E+00
 0.23575  0.0000000E+00
 0.31625  0.0000000E+00
 0.39675  0.0000000E+00
 0.47725  0.0000000E+00
 0.55775  0.0000000E+00
 0.63825  0.0000000E+00
 0.71875  0.0000000E+00
 0.79925  0.0000000E+00
 0.87975  0.0000000E+00
 0.96025  0.0000000E+00
 1.04075  0.0000000E+00
 1.12125  0.0000000E+00
 1.20175  0.0000000E+00
 1.28225  0.0000000E+00
 1.36275  0.0000000E+00
 1.44325  0.0000000E+00
 1.52375  0.0000000E+00
 1.60425  0.0000000E+00
 1.68475  0.0000000E+00
 1.76525  0.0000000E+00
 1.84575  0.0000000E+00
 1.92625  0.0000000E+00
 2.00675  0.0000000E+00
 2.08725  0.0000000E+00
 2.16775  0.0000000E+00
 2.24825  0.0000000E+00
 2.32875  0.0000000E+00
 2.40925  0.0000000E+00
 2.48975  0.0000000E+00
 2.57025  0.0000000E+00
 2.65075  0.0000000E+00
 2.73125  0.0000000E+00
 2.81175  0.0000000E+00
 2.89225  34.8466
 2.97275  34.4771
 3.05325  35.4531
 3.13375  35.7767
 3.21425  35.4051
 3.29475  34.1507
 3.37525  34.5314
 3.45575  34.5111
 3.53625  34.0037
 3.61675  33.224
 3.69725  33.3575
 3.77775  32.959
 3.85825  33.1628
 3.93875  32.8933
 4.01925  33.2354
 4.09975  32.2884
 4.18025  32.2082
 4.26075  31.9636
 4.34125  32.3655
 4.42175  32.7003
 4.50225  32.9785
 4.58275  32.8143
 4.66325  33.4029
 4.74375  32.9394
 4.82425  32.8712
 4.90475  33.346
 4.98525  33.0025
 5.06575  33.1486
 5.14625  33.761
 5.22675  34.035
 5.30725  34.418
 5.38775  34.4579
 5.46825  35.2251
 5.54875  35.0173
 5.62925  35.6849
 5.70975  36.0549
 5.79025  36.3595
 5.87075  37.8129
 5.95125  53.1754
 6.03175  68.0211
 6.11225  38.2141
 6.19275  37.9788
 6.27325  37.9426
 6.35375  38.4009
 6.43425  38.7471
 6.51475  39.4663
 6.59525  39.6277
 6.67575  40.3263
 6.75625  40.8546
 6.83675  41.5655
 6.91725  42.1752
 6.99775  42.7054
 7.07825  42.7401
 7.15875  43.4664
 7.23925  43.8833
 7.31975  43.9212
 7.40025  44.0656
 7.48075  44.3431
 7.56125  44.618
 7.64175  44.4926
 7.72225  44.2684
 7.80275  44.475
 7.88325  43.9064
 7.96375  43.6999
 8.04425  43.4277
 8.12475  42.7248
 8.20525  42.1746
 8.28575  40.9366
 8.36625  39.8694
 8.44675  38.6845
 8.52725  37.8089
 8.60775  36.2113
 8.68825  35.1545
 8.76875  33.8876
 8.84925  32.779
 8.92975  31.4466
 9.01025  30.5478
 9.09075  29.642
 9.17125  28.8687
 9.25175  28.0411
 9.33225  27.6344
 9.41275  27.0224
 9.49325  26.4014
 9.57375  25.9059
 9.65425  25.4735
 9.73475  25.0249
 9.81525  24.8396
 9.89575  24.4428
 9.97625  24.2101
 10.0567  24.1678
 10.1373  23.7721
 10.2178  23.9159
 10.2982  23.6722
 10.3788  23.4571
 10.4593  23.1289
 10.5397  23.1742
 10.6203  22.8471
 10.7007  22.9289
 10.7813  22.978
 10.8618  22.724
 10.9422  22.6851
 11.0228  22.5731
 11.1033  22.4642
 11.1837  22.5804
 11.2643  22.5274
 11.3447  22.5064
 11.4253  22.7463
 11.5058  23.0869
 11.5862  29.9528
 11.6668  23.9742
 11.7473  22.514
 11.8277  22.7408
 11.9083  22.7206
 11.9887  23.6784
 12.0693  25.3577
 12.1498  27.7841
 12.2302  22.6823
 12.3108  22.7175
 12.3913  22.4838
 12.4718  22.6225
 12.5523  22.8321
 12.6328  23.0361
 12.7133  22.9453
 12.7938  23.2049
 12.8742  23.369
 12.9548  23.709
 13.0353  24.0447
 13.1158  24.9276
 13.1963  25.8141
 13.2768  26.6962
 13.3573  27.6646
 13.4378  28.6827
 13.5183  29.4369
 13.5988  29.806
 13.6793  29.7505
 13.7598  29.6912
 13.8403  29.2699
 13.9208  33.668
 14.0013  32.1372
 14.0818  27.7238
 14.1623  27.1179
 14.2428  26.7403
 14.3233  26.1405
 14.4038  26.1263
 14.4843  25.5529
 14.5648  25.6112
 14.6453  25.3077
 14.7258  25.1672
 14.8063  25.0323
 14.8868  24.758
 14.9673  24.8573
 15.0478  24.8404
 15.1283  25.1007
 15.2088  26.7225
 15.2892  24.8265
 15.3698  24.5583
 15.4503  24.5359
 15.5308  24.6496
 15.6113  24.5543
 15.6918  24.618
 15.7723  24.7643
 15.8528  24.6321
 15.9332  24.7284
 16.0138  24.6857
 16.0943  24.7937
 16.1748  24.8891
 16.2553  26.6971
 16.3358  25.116
 16.4163  24.8062
 16.4967  24.7173
 16.5773  24.5921
 16.6578  24.6573
 16.7383  24.5727
 16.8188  24.4166
 16.8992  24.4722
 16.9798  24.2819
 17.0603  24.1984
 17.1408  24.3391
 17.2213  24.1936
 17.3017  24.1286
 17.3823  24.0738
 17.4628  23.9926
 17.5433  23.9932
 17.6238  23.8497
 17.7042  23.8293
 17.7847  23.7873
 17.8653  23.7715
 17.9458  23.8622
 18.0263  24.8404
 18.1068  27.7077
 18.1872  24.4523
 18.2678  23.9213
 18.3483  23.6856
 18.4288  23.7046
 18.5093  23.56
 18.5897  23.803
 18.6703  23.6196
 18.7508  23.4603
 18.8313  23.5113
 18.9118  23.4996
 18.9922  23.4445
 19.0727  23.6254
 19.1533  23.6482
 19.2338  23.6329
 19.3143  23.6783
 19.3948  23.7424
 19.4752  23.7371
 19.5558  23.9035
 19.6363  24.5154
 19.7168  28.1546
 19.7973  25.8632
 19.8777  33.1313
 19.9582  24.7825
 20.0388  23.9743
 20.1193  23.8892
 20.1998  23.727
 20.2803  23.7922
 20.3607  23.7381
 20.4413  23.7824
 20.5218  23.6625
 20.6023  24.0243
 20.6828  24.4285
 20.7632  27.0019
 20.8438  24.3625
 20.9243  23.9512
 21.0048  23.9926
 21.0853  23.9338
 21.1658  23.9273
 21.2462  23.8643
 21.3268  24.0319
 21.4073  24.1147
 21.4878  23.9394
 21.5683  24.0028
 21.6487  24.1741
 21.7293  24.1058
 21.8098  24.3075
 21.8903  24.2477
 21.9708  24.2033
 22.0512  24.2608
 22.1318  24.3145
 22.2123  24.3917
 22.2928  24.4765
 22.3733  24.6518
 22.4538  24.6423
 22.5343  24.8394
 22.6148  24.9719
 22.6953  25.1492
 22.7758  25.3317
 22.8563  25.5618
 22.9367  26.0369
 22.9943  26.518

File: Data_0104.chi
F:\20151113_APS_34IDE\\Brian\Particle1\OCV\Data_0104.tif
2-Theta Angle (Degrees)
Intensity
       2000
 0.07475  0.0000000E+00
 0.15525  0.0000000E+00
 0.23575  0.0000000E+00
 0.31625  0.0000000E+00
 0.39675  0.0000000E+00
 0.47725  0.0000000E+00
 0.55775  0.0000000E+00
 0.63825  0.0000000E+00
 0.71875  0.0000000E+00
 0.79925  0.0000000E+00
 0.87975  0.0000000E+00
 0.96025  0.0000000E+00
 1.04075  0.0000000E+00
 1.12125  0.0000000E+00
 1.20175  0.0000000E+00
 1.28225  0.0000000E+00
 1.36275  0.0000000E+00
 1.44325  0.0000000E+00
 1.52375  0.0000000E+00
 1.60425  0.0000000E+00
 1.68475  0.0000000E+00
 1.76525  0.0000000E+00
 1.84575  0.0000000E+00
 1.92625  0.0000000E+00
 2.00675  0.0000000E+00
 2.08725  0.0000000E+00
 2.16775  0.0000000E+00
 2.24825  0.0000000E+00
 2.32875  0.0000000E+00
 2.40925  0.0000000E+00
 2.48975  0.0000000E+00
 2.57025  0.0000000E+00
 2.65075  0.0000000E+00
 2.73125  0.0000000E+00
 2.81175  0.0000000E+00
 2.89225  35.3644
 2.97275  34.2849
 3.05325  34.8423
 3.13375  34.3683
 3.21425  34.3541
 3.29475  35.3136
 3.37525  34.9603
 3.45575  34.2867
 3.53625  33.9158
 3.61675  32.9923
 3.69725  32.6243
 3.77775  33.4714
 3.85825  32.7412
 3.93875  32.5016
 4.01925  32.7337
 4.09975  32.6712
 4.18025  31.9172
 4.26075  32.2734
 4.34125  32.5532
 4.42175  32.6102
 4.50225  32.581
 4.58275  32.5729
 4.66325  32.9719
 4.74375  32.6069
 4.82425  32.6615
 4.90475  32.566
 4.98525  32.6726
 5.06575  33.2944
 5.14625  33.6863
 5.22675  33.9991
 5.30725  34.1307
 5.38775  34.5294
 5.46825  34.7898
 5.54875  35.299
 5.62925  35.6195
 5.70975  35.8207
 5.79025  35.9739
 5.87075  36.6431
 5.95125  46.3363
 6.03175  44.5584
 6.11225  37.2348
 6.19275  37.3015
 6.27325  37.5765
 6.35375  38.1022
 6.43425  38.6236
 6.51475  39.0806
 6.59525  39.6633
 6.67575  40.215
 6.75625  41.0515
 6.83675  41.4675
 6.91725  41.8893
 6.99775  42.4934
 7.07825  42.5498
 7.15875  43.3975
 7.23925  43.3413
 7.31975  43.8666
 7.40025  43.7385
 7.48075  44.2247
 7.56125  44.2632
 7.64175  44.3744
 7.72225  44.2983
 7.80275  44.0748
 7.88325  43.8226
 7.96375  43.7834
 8.04425  43.2209
 8.12475  42.7204
 8.20525  41.6487
 8.28575  40.9297
 8.36625  39.9655
 8.44675  38.893
 8.52725  37.5773
 8.60775  36.3419
 8.68825  35.2461
 8.76875  33.9098
 8.84925  32.9778
 8.92975  31.6851
 9.01025  30.8315
 9.09075  29.6999
 9.17125  28.9393
 9.25175  28.0887
 9.33225  27.3183
 9.41275  26.92
 9.49325  26.4108
 9.57375  25.9702
 9.65425  25.5862
 9.73475  25.0013
 9.81525  24.9337
 9.89575  24.6169
 9.97625  24.375
 10.0567  24.1186
 10.1373  23.9146
 10.2178  23.7621
 10.2982  23.6267
 10.3788  23.384
 10.4593  23.2482
 10.5397  23.0878
 10.6203  22.8654
 10.7007  22.8188
 10.7813  22.8645
 10.8618  22.6581
 10.9422  22.5858
 11.0228  22.5812
 11.1033  22.6328
 11.1837  22.5121
 11.2643  22.3295
 11.3447  22.5706
 11.4253  22.6548
 11.5058  23.2247
 11.5862  29.4762
 11.6668  24.4017
 11.7473  22.7562
 11.8277  22.6294
 11.9083  22.6667
 11.9887  24.7535
 12.0693  24.6093
 12.1498  24.2853
 12.2302  22.6357
 12.3108  22.6427
 12.3913  22.6465
 12.4718  22.678
 12.5523  22.7116
 12.6328  22.8912
 12.7133  22.9314
 12.7938  23.1705
 12.8742  23.4244
 12.9548  23.8112
 13.0353  24.2017
 13.1158  25.0564
 13.1963  25.7968
 13.2768  26.7314
 13.3573  27.8271
 13.4378  28.6189
 13.5183  29.2732
 13.5988  29.7145
 13.6793  30.0053
 13.7598  30.1018
 13.8403  31.031
 13.9208  53.0978
 14.0013  43.6037
 14.0818  28.9359
 14.1623  27.5291
 14.2428  26.5915
 14.3233  26.2679
 14.4038  26.0829
 14.4843  25.6778
 14.5648  25.5023
 14.6453  25.3511
 14.7258  25.1514
 14.8063  25.0164
 14.8868  24.7204
 14.9673  24.8677
 15.0478  24.8712
 15.1283  25.2306
 15.2088  27.812
 15.2892  24.9105
 15.3698  24.6891
 15.4503  24.6881
 15.5308  24.5077
 15.6113  24.7358
 15.6918  24.6997
 15.7723  24.5259
 15.8528  24.5111
 15.9332  24.5556
 16.0138  24.5363
 16.0943  24.7731
 16.1748  24.9484
 16.2553  26.3454
 16.3358  25.0487
 16.4163  24.79
 16.4967  24.6133
 16.5773  24.5906
 16.6578  24.6485
 16.7383  24.5808
 16.8188  24.4495
 16.8992  24.3073
 16.9798  24.38
 17.0603  24.133
 17.1408  24.1809
 17.2213  24.1345
 17.3017  24.1105
 17.3823  23.972
 17.4628  24.0943
 17.5433  23.9274
 17.6238  23.9687
 17.7042  23.7351
 17.7847  23.7733
 17.8653  23.8157
 17.9458  23.8851
 18.0263  24.7019
 18.1068  28.1177
 18.1872  24.5366
 18.2678  23.6583
 18.3483  23.6829
 18.4288  23.5975
 18.5093  23.7403
 18.5897  23.6135
 18.6703  23.4453
 18.7508  23.4859
 18.8313  23.5475
 18.9118  23.5039
 18.9922  23.4638
 19.0727  23.578
 19.1533  23.5541
 19.2338  23.464
 19.3143  23.5501
 19.3948  23.7148
 19.4752  23.536
 19.5558  23.7457
 19.6363  24.4896
 19.7168  30.9928
 19.7973  26.72
 19.8777  29.6124
 19.9582  24.4282
 20.0388  23.7749
 20.1193  23.8062
 20.1998  23.6363
 20.2803  23.8364
 20.3607  23.8161
 20.4413  23.7948
 20.5218  23.608
 20.6023  23.8922
 20.6828  24.4137
 20.7632  27.2327
 20.8438  24.3753
 20.9243  24.0035
 21.0048  24.1398
 21.0853  23.8455
 21.1658  23.767
 21.2462  23.7994
 21.3268  23.8999
 21.4073  23.909
 21.4878  23.9409
 21.5683  24.0803
 21.6487  24.1175
 21.7293  24.1055
 21.8098  24.1237
 21.8903  24.0971
 21.9708  24.2412
 22.0512  24.3347
 22.1318  24.4304
 22.2123  24.3555
 22.2928  24.3645
 22.3733  24.5921
 22.4538  24.5379
 22.5343  24.7553
 22.6148  24.9069
 22.6953  25.1117
 22.7758  25.3772
 22.8563  25.6015
 22.9367  25.972
 22.9943  26.7356

File: Data_0105.chi
F:\20151113_APS_34IDE\\Brian\Particle1\OCV\Data_0105.tif
2-Theta Angle (Degrees)
Intensity
       2000
 0.07475  0.0000000E+00
 0.15525  0.0000000E+00
 0.23575  0.0000000E+00
 0.31625  0.0000000E+00
 0.39675  0.0000000E+00
 0.47725  0.0000000E+00
 0.55775  0.0000000E+00
 0.63825  0.0000000E+00
 0.71875  0.0000000E+00
 0.79925  0.0000000E+00
 0.87975  0.0000000E+00
 0.96025  0.0000000E+00
 1.04075  0.0000000E+00
 1.12125  0.0000000E+00
 1.20175  0.0000000E+00
 1.28225  0.0000000E+00
 1.36275  0.0000000E+00
 1.44325  0.0000000E+00
 1.52375  0.0000000E+00
 1.60425  0.0000000E+00
 1.68475  0.0000000E+00
 1.76525  0.0000000E+00
 1.84575  0.0000000E+00
 1.92625  0.0000000E+00
 2.00675  0.0000000E+00
 2.08725  0.0000000E+00
 2.16775  0.0000000E+00
 2.24825  0.0000000E+00
 2.32875  0.0000000E+00
 2.40925  0.0000000E+00
 2.48975  0.0000000E+00
 2.57025  0.0000000E+00
 2.65075  0.0000000E+00
 2.73125  0.0000000E+00
 2.81175  0.0000000E+00
 2.89225  33.8177
 2.97275  36.3005
 3.05325  34.5661
 3.13375  35.8579
 3.21425  35.365
 3.29475  35.0878
 3.37525  34.2626
 3.45575  34.4849
 3.53625  33.6085
 3.61675  33.1483
 3.69725  32.7566
 3.77775  32.7726
 3.85825  32.5908
 3.93875  32.7565
 4.01925  32.1086
 4.09975  31.6616
 4.18025  32.201
 4.26075  32.3892
 4.34125  32.3059
 4.42175  32.4279
 4.50225  32.4364
 4.58275  33.1384
 4.66325  32.6372
 4.74375  32.3678
 4.82425  32.5038
 4.90475  32.9515
 4.98525  32.7424
 5.06575  33.2336
 5.14625  33.483
 5.22675  33.658
 5.30725  34.0034
 5.38775  34.1235
 5.46825  34.6884
 5.54875  34.6613
 5.62925  34.985
 5.70975  35.1895
 5.79025  35.4961
 5.87075  35.9016
 5.95125  41.9688
 6.03175  39.813
 6.11225  36.8324
 6.19275  37.0329
 6.27325  37.2304
 6.35375  37.5022
 6.43425  38.5206
 6.51475  39.1014
 6.59525  39.7864
 6.67575  40.1835
 6.75625  40.5374
 6.83675  41.2105
 6.91725  41.7385
 6.99775  42.1729
 7.07825  42.5327
 7.15875  42.8468
 7.23925  43.4295
 7.31975  43.6392
 7.40025  43.8336
 7.48075  44.0189
 7.56125  44.0724
 7.64175  44.1157
 7.72225  44.1034
 7.80275  43.8101
 7.88325  43.7934
 7.96375  43.4794
 8.04425  42.9207
 8.12475  42.8006
 8.20525  41.6351
 8.28575  40.9301
 8.36625  39.7332
 8.44675  38.8297
 8.52725  37.3645
 8.60775  36.1618
 8.68825  35.1247
 8.76875  33.9139
 8.84925  32.7166
 8.92975  31.5265
 9.01025  30.4308
 9.09075  29.7619
 9.17125  28.803
 9.25175  27.847
 9.33225  27.3961
 9.41275  27.0772
 9.49325  26.3703
 9.57375  25.7107
 9.65425  25.4021
 9.73475  25.2958
 9.81525  24.9698
 9.89575  24.6196
 9.97625  24.1536
 10.0567  24.0983
 10.1373  23.8752
 10.2178  23.6343
 10.2982  23.4473
 10.3788  23.273
 10.4593  23.2585
 10.5397  23.1457
 10.6203  23.0287
 10.7007  22.8686
 10.7813  22.8179
 10.8618  22.708
 10.9422  22.5791
 11.0228  22.4587
 11.1033  22.5354
 11.1837  22.3033
 11.2643  22.3751
 11.3447  22.4815
 11.4253  22.8601
 11.5058  23.7109
 11.5862  35.6109
 11.6668  23.4832
 11.7473  22.5194
 11.8277  22.5544
 11.9083  22.7355
 11.9887  24.5107
 12.0693  24.4969
 12.1498  23.7471
 12.2302  22.6222
 12.3108  22.5572
 12.3913  22.55
 12.4718  22.6593
 12.5523  22.6863
 12.6328  22.6364
 12.7133  22.88
 12.7938  23.0482
 12.8742  23.7379
 12.9548  23.8336
 13.0353  24.0864
 13.1158  24.8189
 13.1963  25.5575
 13.2768  26.4951
 13.3573  27.5026
 13.4378  28.4426
 13.5183  29.2369
 13.5988  29.7978
 13.6793  29.7135
 13.7598  29.507
 13.8403  29.7589
 13.9208  40.3537
 14.0013  36.7313
 14.0818  27.9891
 14.1623  26.9272
 14.2428  26.3775
 14.3233  26.1554
 14.4038  25.9828
 14.4843  25.7356
 14.5648  25.4939
 14.6453  25.2429
 14.7258  25.1478
 14.8063  24.8978
 14.8868  24.7797
 14.9673  24.7318
 15.0478  24.9842
 15.1283  25.7182
 15.2088  28.0817
 15.2892  24.9778
 15.3698  24.435
 15.4503  24.3263
 15.5308  24.4544
 15.6113  24.5251
 15.6918  24.424
 15.7723  24.4186
 15.8528  24.5641
 15.9332  24.5454
 16.0138  24.6925
 16.0943  24.5446
 16.1748  24.902
 16.2553  25.7586
 16.3358  24.9843
 16.4163  24.5532
 16.4967  24.5979
 16.5773  24.6514
 16.6578  24.3587
 16.7383  24.4321
 16.8188  24.3082
 16.8992  24.1959
 16.9798  24.322
 17.0603  24.1366
 17.1408  24.2089
 17.2213  23.9737
 17.3017  24.0403
 17.3823  24.0334
 17.4628  23.9316
 17.5433  23.7967
 17.6238  23.6846
 17.7042  23.7101
 17.7847  23.6861
 17.8653  23.6727
 17.9458  23.8025
 18.0263  24.3631
 18.1068  25.1403
 18.1872  23.8921
 18.2678  23.4706
 18.3483  23.5502
 18.4288  23.5541
 18.5093  23.4625
 18.5897  23.5335
 18.6703  23.3216
 18.7508  23.344
 18.8313  23.3693
 18.9118  23.514
 18.9922  23.4281
 19.0727  23.4368
 19.1533  23.5268
 19.2338  23.3952
 19.3143  23.5664
 19.3948  23.5384
 19.4752  23.5636
 19.5558  23.5826
 19.6363  23.9492
 19.7168  26.1021
 19.7973  25.0821
 19.8777  26.364
 19.9582  23.8712
 20.0388  23.5957
 20.1193  23.6482
 20.1998  23.6961
 20.2803  23.6684
 20.3607  23.4525
 20.4413  23.6934
 20.5218  23.6427
 20.6023  23.8744
 20.6828  24.585
 20.7632  30.743
 20.8438  25.2375
 20.9243  24.0876
 21.0048  23.848
 21.0853  23.9206
 21.1658  23.7859
 21.2462  23.7954
 21.3268  23.7695
 21.4073  23.739
 21.4878  23.8915
 21.5683  23.7745
 21.6487  23.8719
 21.7293  23.9906
 21.8098  24.0988
 21.8903  24.1396
 21.9708  24.1409
 22.0512  24.2126
 22.1318  24.1755
 22.2123  24.2863
 22.2928  24.4047
 22.3733  24.4802
 22.4538  24.5326
 22.5343  24.6182
 22.6148  24.9068
 22.6953  25.1707
 22.7758  25.2457
 22.8563  25.4265
 22.9367  25.9317
 22.9943  26.335

File: Data_0106.chi
F:\20151113_APS_34IDE\\Brian\Particle1\OCV\Data_0106.tif
2-Theta Angle (Degrees)
Intensity
       2000
 0.07475  0.0000000E+00
 0.15525  0.0000000E+00
 0.23575  0.0000000E+00
 0.31625  0.0000000E+00
 0.39675  0.0000000E+00
 0.47725  0.0000000E+00
 0.55775  0.0000000E+00
 0.63825  0.0000000E+00
 0.71875  0.0000000E+00
 0.79925  0.0000000E+00
 0.87975  0.0000000E+00
 0.96025  0.0000000E+00
 1.04075  0.0000000E+00
 1.12125  0.0000000E+00
 1.20175  0.0000000E+00
 1.28225  0.0000000E+00
 1.36275  0.0000000E+00
 1.44325  0.0000000E+00
 1.52375  0.0000000E+00
 1.60425  0.0000000E+00
 1.68475  0.0000000E+00
 1.76525  0.0000000E+00
 1.84575  0.0000000E+00
 1.92625  0.0000000E+00
 2.00675  0.0000000E+00
 2.08725  0.0000000E+00
 2.16775  0.0000000E+00
 2.24825  0.0000000E+00
 2.32875  0.0000000E+00
 2.40925  0.0000000E+00
 2.48975  0.0000000E+00
 2.57025  0.0000000E+00
 2.65075  0.0000000E+00
 2.73125  0.0000000E+00
 2.81175  0.0000000E+00
 2.89225  34.84
 2.97275  33.993
 3.05325  34.3248
 3.13375  33.7648
 3.21425  35.0983
 3.29475  34.6823
 3.37525  34.4601
 3.45575  34.1189
 3.53625  33.6592
 3.61675  32.8636
 3.69725  33.1181
 3.77775  32.5942
 3.85825  32.2815
 3.93875  32.216
 4.01925  32.4757
 4.09975  32.385
 4.18025  31.9862
 4.26075  31.788
 4.34125  32.1666
 4.42175  32.0214
 4.50225  32.2397
 4.58275  32.2687
 4.66325  32.412
 4.74375  32.2813
 4.82425  32.585
 4.90475  32.7208
 4.98525  32.801
 5.06575  32.8419
 5.14625  33.3583
 5.22675  33.5773
 5.30725  33.661
 5.38775  33.8137
 5.46825  34.1572
 5.54875  34.8381
 5.62925  34.8645
 5.70975  35.2429
 5.79025  35.6655
 5.87075  35.9936
 5.95125  43.7607
 6.03175  42.947
 6.11225  36.705
 6.19275  37.0364
 6.27325  37.1704
 6.35375  37.5065
 6.43425  38.3103
 6.51475  38.6265
 6.59525  39.0308
 6.67575  39.9646
 6.75625  40.3646
 6.83675  40.9813
 6.91725  41.5729
 6.99775  41.8633
 7.07825  42.4484
 7.15875  42.6861
 7.23925  43.0918
 7.31975  43.3724
 7.40025  43.7415
 7.48075  43.7727
 7.56125  43.7847
 7.64175  43.7772
 7.72225  43.9131
 7.80275  43.8118
 7.88325  43.658
 7.96375  43.2624
 8.04425  42.8021
 8.12475  42.3201
 8.20525  41.4307
 8.28575  40.7472
 8.36625  39.3646
 8.44675  38.2385
 8.52725  37.2732
 8.60775  35.9412
 8.68825  35.0002
 8.76875  33.6854
 8.84925  32.6974
 8.92975  31.2889
 9.01025  30.1577
 9.09075  29.5817
 9.17125  28.7362
 9.25175  27.9619
 9.33225  27.3592
 9.41275  26.7232
 9.49325  26.4123
 9.57375  25.8616
 9.65425  25.3554
 9.73475  25.1402
 9.81525  24.935
 9.89575  24.5316
 9.97625  24.1143
 10.0567  24.0011
 10.1373  23.8707
 10.2178  23.5407
 10.2982  23.4101
 10.3788  23.3131
 10.4593  22.9897
 10.5397  22.8845
 10.6203  22.8575
 10.7007  22.8672
 10.7813  22.6872
 10.8618  22.6244
 10.9422  22.4635
 11.0228  22.3754
 11.1033  22.3517
 11.1837  22.3375
 11.2643  22.2672
 11.3447  22.3582
 11.4253  22.5027
 11.5058  22.6548
 11.5862  24.7754
 11.6668  22.9245
 11.7473  22.2168
 11.8277  22.3542
 11.9083  22.3782
 11.9887  22.8694
 12.0693  23.5458
 12.1498  23.4134
 12.2302  22.4098
 12.3108  22.5202
 12.3913  22.4873
 12.4718  22.728
 12.5523  22.4447
 12.6328  22.6777
 12.7133  22.8033
 12.7938  22.7761
 12.8742  23.1637
 12.9548  23.6388
 13.0353  23.9979
 13.1158  24.7974
 13.1963  25.4007
 13.2768  26.4555
 13.3573  27.5827
 13.4378  28.4989
 13.5183  29.1881
 13.5988  29.5063
 13.6793  29.466
 13.7598  29.288
 13.8403  29.6442
 13.9208  39.4758
 14.0013  38.1234
 14.0818  28.1105
 14.1623  27.0836
 14.2428  26.4862
 14.3233  25.9662
 14.4038  25.9728
 14.4843  25.5531
 14.5648  25.4905
 14.6453  25.2935
 14.7258  25.192
 14.8063  24.9077
 14.8868  24.8258
 14.9673  24.5878
 15.0478  24.6758
 15.1283  25.0707
 15.2088  27.3758
 15.2892  24.8558
 15.3698  24.4846
 15.4503  24.4163
 15.5308  24.177
 15.6113  24.3836
 15.6918  24.4278
 15.7723  24.4555
 15.8528  24.3769
 15.9332  24.3725
 16.0138  24.3825
 16.0943  24.5923
 16.1748  24.6807
 16.2553  25.6188
 16.3358  24.8432
 16.4163  24.4372
 16.4967  24.5908
 16.5773  24.3162
 16.6578  24.7781
 16.7383  24.39
 16.8188  24.3562
 16.8992  24.229
 16.9798  24.1648
 17.0603  23.9445
 17.1408  24.1868
 17.2213  23.9445
 17.3017  23.9482
 17.3823  23.7949
 17.4628  23.7477
 17.5433  23.7186
 17.6238  23.7299
 17.7042  23.7234
 17.7847  23.5968
 17.8653  23.6501
 17.9458  23.6428
 18.0263  23.9866
 18.1068  24.4739
 18.1872  23.7236
 18.2678  23.3543
 18.3483  23.3948
 18.4288  23.3766
 18.5093  23.2939
 18.5897  23.3484
 18.6703  23.3699
 18.7508  23.3586
 18.8313  23.2864
 18.9118  23.2738
 18.9922  23.3839
 19.0727  23.3943
 19.1533  23.374
 19.2338  23.3588
 19.3143  23.4288
 19.3948  23.4288
 19.4752  23.5763
 19.5558  23.7007
 19.6363  24.1727
 19.7168  27.8051
 19.7973  25.5552
 19.8777  26.8114
 19.9582  23.886
 20.0388  23.6034
 20.1193  23.6869
 20.1998  23.5333
 20.2803  23.4991
 20.3607  23.4872
 20.4413  23.6056
 20.5218  23.5575
 20.6023  23.7011
 20.6828  24.4478
 20.7632  27.5019
 20.8438  24.3237
 20.9243  23.9425
 21.0048  23.8498
 21.0853  23.7395
 21.1658  23.6895
 21.2462  23.6597
 21.3268  23.6859
 21.4073  23.7384
 21.4878  23.7826
 21.5683  23.789
 21.6487  23.9209
 21.7293  23.8385
 21.8098  24.0998
 21.8903  23.9629
 21.9708  24.0929
 22.0512  24.0802
 22.1318  24.1642
 22.2123  24.1455
 22.2928  24.2279
 22.3733  24.3324
 22.4538  24.4257
 22.5343  24.5878
 22.6148  24.7428
 22.6953  25.0155
 22.7758  25.1489
 22.8563  25.2979
 22.9367  25.8487
 22.9943  26.2999