Folder: scimap-tests/test-data-xrd/xrd-map-34-ID-E (part 3)

File: Data_0010.chi
F:\20151113_APS_34IDE\\Brian\Particle1\OCV\Data_0010.tif
2-Theta Angle (Degrees)
Intensity
       2000
 0.07475  0.0000000E+00
 0.15525  0.0000000E+00
 0.23575  0.0000000E+00
 0.31625  0.0000000E+00
 0.39675  0.0000000E+00
 0.47725  0.0000000E+00
 0.55775  0.0000000E+00
 0.63825  0.0000000E+00
 0.71875  0.0000000E+00
 0.79925  0.0000000E+00
 0.87975  0.0000000E+00
 0.96025  0.0000000E+00
 1.04075  0.0000000E+00
 1.12125  0.0000000E+00
 1.20175  0.0000000E+00
 1.28225  0.0000000E+00
 1.36275  0.0000000E+00
 1.44325  0.0000000E+00
 1.52375  0.0000000E+00
 1.60425  0.0000000E+00
 1.68475  0.0000000E+00
 1.76525  0.0000000E+00
 1.84575  0.0000000E+00
 1.92625  0.0000000E+00
 2.00675  0.0000000E+00
 2.08725  0.0000000E+00
 2.16775  0.0000000E+00
 2.24825  0.0000000E+00
 2.32875  0.0000000E+00
 2.40925  0.0000000E+00
 2.48975  0.0000000E+00
 2.57025  0.0000000E+00
 2.65075  0.0000000E+00
 2.73125  0.0000000E+00
 2.81175  0.0000000E+00
 2.89225  34.8368
 2.97275  35.0897
 3.05325  35.8397
 3.13375  35.66
 3.21425  35.6734
 3.29475  36.2267
 3.37525  35.4661
 3.45575  34.8918
 3.53625  34.0641
 3.61675  33.7529
 3.69725  33.5935
 3.77775  33.0878
 3.85825  32.5884
 3.93875  32.7345
 4.01925  33.3375
 4.09975  32.489
 4.18025  32.4561
 4.26075  32.3461
 4.34125  32.4787
 4.42175  32.6366
 4.50225  32.9712
 4.58275  32.979
 4.66325  33.4643
 4.74375  32.887
 4.82425  32.8658
 4.90475  33.3058
 4.98525  33.1665
 5.06575  33.648
 5.14625  34.1196
 5.22675  34.2755
 5.30725  34.5904
 5.38775  34.6464
 5.46825  35.1201
 5.54875  35.3209
 5.62925  35.4835
 5.70975  35.7586
 5.79025  35.9436
 5.87075  35.9259
 5.95125  37.9524
 6.03175  38.2346
 6.11225  37.1046
 6.19275  37.4435
 6.27325  37.9247
 6.35375  38.2058
 6.43425  38.8518
 6.51475  39.2901
 6.59525  39.9733
 6.67575  40.5193
 6.75625  40.9854
 6.83675  41.8581
 6.91725  42.4659
 6.99775  42.6934
 7.07825  42.8349
 7.15875  43.3495
 7.23925  44.0795
 7.31975  44.184
 7.40025  44.3571
 7.48075  44.5945
 7.56125  44.8826
 7.64175  44.8346
 7.72225  44.5239
 7.80275  44.2799
 7.88325  44.2995
 7.96375  43.9604
 8.04425  43.504
 8.12475  43.1866
 8.20525  42.2289
 8.28575  41.3299
 8.36625  40.3405
 8.44675  39.1692
 8.52725  37.9745
 8.60775  36.8893
 8.68825  35.4988
 8.76875  34.2505
 8.84925  33.1181
 8.92975  32.0482
 9.01025  30.9525
 9.09075  29.973
 9.17125  29.3995
 9.25175  28.4915
 9.33225  27.932
 9.41275  27.4545
 9.49325  26.77
 9.57375  26.0915
 9.65425  25.6595
 9.73475  25.4411
 9.81525  25.1216
 9.89575  24.6161
 9.97625  24.5436
 10.0567  24.2806
 10.1373  24.0495
 10.2178  23.8434
 10.2982  23.6412
 10.3788  23.5383
 10.4593  23.2606
 10.5397  23.3122
 10.6203  23.079
 10.7007  23.0368
 10.7813  22.9793
 10.8618  22.883
 10.9422  22.7364
 11.0228  22.7721
 11.1033  22.6736
 11.1837  22.781
 11.2643  22.44
 11.3447  22.6143
 11.4253  22.8792
 11.5058  22.9487
 11.5862  26.8227
 11.6668  23.3151
 11.7473  22.5999
 11.8277  22.6185
 11.9083  22.4948
 11.9887  22.6629
 12.0693  22.7298
 12.1498  22.9118
 12.2302  22.5227
 12.3108  22.6522
 12.3913  22.6682
 12.4718  22.7153
 12.5523  22.9948
 12.6328  22.8776
 12.7133  22.9193
 12.7938  23.0704
 12.8742  23.4231
 12.9548  23.6842
 13.0353  24.1964
 13.1158  25.0397
 13.1963  25.7522
 13.2768  26.7565
 13.3573  27.7271
 13.4378  28.5619
 13.5183  29.4216
 13.5988  29.8252
 13.6793  29.7509
 13.7598  29.3792
 13.8403  29.0542
 13.9208  29.5386
 14.0013  29.7043
 14.0818  27.4384
 14.1623  27.0321
 14.2428  26.6594
 14.3233  26.2123
 14.4038  26.0413
 14.4843  25.7418
 14.5648  25.5346
 14.6453  25.3854
 14.7258  25.2101
 14.8063  25.0759
 14.8868  25.0212
 14.9673  24.8877
 15.0478  24.865
 15.1283  24.8967
 15.2088  26.0509
 15.2892  24.9685
 15.3698  24.6804
 15.4503  24.5234
 15.5308  24.6748
 15.6113  24.5791
 15.6918  24.5742
 15.7723  24.7012
 15.8528  24.6869
 15.9332  24.698
 16.0138  24.7177
 16.0943  24.6918
 16.1748  24.8719
 16.2553  25.2509
 16.3358  24.9354
 16.4163  24.8196
 16.4967  24.6832
 16.5773  24.6101
 16.6578  24.5038
 16.7383  24.6203
 16.8188  24.4812
 16.8992  24.4305
 16.9798  24.3573
 17.0603  24.082
 17.1408  24.3545
 17.2213  24.148
 17.3017  24.0482
 17.3823  24.0706
 17.4628  24.029
 17.5433  23.9809
 17.6238  23.8129
 17.7042  23.863
 17.7847  23.8017
 17.8653  23.768
 17.9458  23.7044
 18.0263  23.735
 18.1068  23.9878
 18.1872  23.6411
 18.2678  23.5444
 18.3483  23.6325
 18.4288  23.6528
 18.5093  23.5561
 18.5897  23.6169
 18.6703  23.4299
 18.7508  23.5292
 18.8313  23.5487
 18.9118  23.4257
 18.9922  23.516
 19.0727  23.5836
 19.1533  23.5816
 19.2338  23.5588
 19.3143  23.7009
 19.3948  23.5686
 19.4752  23.5887
 19.5558  23.631
 19.6363  23.8661
 19.7168  24.5064
 19.7973  24.3323
 19.8777  24.4855
 19.9582  23.7604
 20.0388  23.6619
 20.1193  23.6656
 20.1998  23.7821
 20.2803  23.6572
 20.3607  23.7877
 20.4413  23.7849
 20.5218  23.608
 20.6023  23.7785
 20.6828  23.7889
 20.7632  24.19
 20.8438  23.8757
 20.9243  23.9974
 21.0048  23.7855
 21.0853  23.8411
 21.1658  23.8318
 21.2462  23.9336
 21.3268  23.8962
 21.4073  23.9412
 21.4878  24.0377
 21.5683  23.9884
 21.6487  24.1773
 21.7293  24.1753
 21.8098  24.1909
 21.8903  24.2297
 21.9708  24.5754
 22.0512  24.2558
 22.1318  24.4222
 22.2123  24.3183
 22.2928  24.4235
 22.3733  24.5897
 22.4538  24.6397
 22.5343  24.6973
 22.6148  24.8954
 22.6953  25.0233
 22.7758  25.3066
 22.8563  25.5549
 22.9367  25.9685
 22.9943  26.1552

File: Data_0011.chi
F:\20151113_APS_34IDE\\Brian\Particle1\OCV\Data_0011.tif
2-Theta Angle (Degrees)
Intensity
       2000
 0.07475  0.0000000E+00
 0.15525  0.0000000E+00
 0.23575  0.0000000E+00
 0.31625  0.0000000E+00
 0.39675  0.0000000E+00
 0.47725  0.0000000E+00
 0.55775  0.0000000E+00
 0.63825  0.0000000E+00
 0.71875  0.0000000E+00
 0.79925  0.0000000E+00
 0.87975  0.0000000E+00
 0.96025  0.0000000E+00
 1.04075  0.0000000E+00
 1.12125  0.0000000E+00
 1.20175  0.0000000E+00
 1.28225  0.0000000E+00
 1.36275  0.0000000E+00
 1.44325  0.0000000E+00
 1.52375  0.0000000E+00
 1.60425  0.0000000E+00
 1.68475  0.0000000E+00
 1.76525  0.0000000E+00
 1.84575  0.0000000E+00
 1.92625  0.0000000E+00
 2.00675  0.0000000E+00
 2.08725  0.0000000E+00
 2.16775  0.0000000E+00
 2.24825  0.0000000E+00
 2.32875  0.0000000E+00
 2.40925  0.0000000E+00
 2.48975  0.0000000E+00
 2.57025  0.0000000E+00
 2.65075  0.0000000E+00
 2.73125  0.0000000E+00
 2.81175  0.0000000E+00
 2.89225  35.7734
 2.97275  34.9382
 3.05325  34.4651
 3.13375  34.9755
 3.21425  35.6747
 3.29475  34.7645
 3.37525  33.826
 3.45575  34.1534
 3.53625  34.5058
 3.61675  34.0661
 3.69725  33.1775
 3.77775  33.1591
 3.85825  33.0394
 3.93875  33.0485
 4.01925  32.545
 4.09975  32.6732
 4.18025  32.7041
 4.26075  32.4033
 4.34125  32.2539
 4.42175  32.4554
 4.50225  32.3359
 4.58275  31.9956
 4.66325  32.2788
 4.74375  32.777
 4.82425  33.114
 4.90475  32.9901
 4.98525  32.9615
 5.06575  33.5323
 5.14625  34.0274
 5.22675  34.0662
 5.30725  34.7127
 5.38775  35.028
 5.46825  34.8305
 5.54875  35.2417
 5.62925  35.6799
 5.70975  35.6406
 5.79025  35.8299
 5.87075  35.9693
 5.95125  37.6177
 6.03175  37.7151
 6.11225  36.8959
 6.19275  37.1347
 6.27325  37.5337
 6.35375  38.0347
 6.43425  38.9919
 6.51475  39.5287
 6.59525  40.234
 6.67575  40.3836
 6.75625  41.399
 6.83675  41.728
 6.91725  42.4722
 6.99775  42.5612
 7.07825  43.0655
 7.15875  43.3838
 7.23925  43.6637
 7.31975  44.2008
 7.40025  44.5805
 7.48075  44.4395
 7.56125  44.9525
 7.64175  44.9072
 7.72225  44.8519
 7.80275  44.7195
 7.88325  44.3356
 7.96375  44.1666
 8.04425  43.7517
 8.12475  43.0054
 8.20525  42.4383
 8.28575  41.6613
 8.36625  40.3329
 8.44675  39.062
 8.52725  38.0446
 8.60775  36.8499
 8.68825  35.6866
 8.76875  34.2636
 8.84925  33.0426
 8.92975  32.1591
 9.01025  30.9754
 9.09075  30.0892
 9.17125  29.2754
 9.25175  28.2492
 9.33225  27.7249
 9.41275  26.9843
 9.49325  26.6766
 9.57375  26.1143
 9.65425  25.8989
 9.73475  25.1432
 9.81525  25.0515
 9.89575  24.7606
 9.97625  24.4982
 10.0567  24.5251
 10.1373  24.0228
 10.2178  23.8836
 10.2982  23.629
 10.3788  23.5282
 10.4593  23.4676
 10.5397  23.246
 10.6203  22.9533
 10.7007  23.0966
 10.7813  22.9584
 10.8618  22.9308
 10.9422  22.5732
 11.0228  22.7302
 11.1033  22.4401
 11.1837  22.684
 11.2643  22.4925
 11.3447  22.3356
 11.4253  22.6274
 11.5058  22.4971
 11.5862  23.7021
 11.6668  22.6432
 11.7473  22.4663
 11.8277  22.4166
 11.9083  22.3988
 11.9887  22.5381
 12.0693  22.738
 12.1498  22.6733
 12.2302  22.4069
 12.3108  22.587
 12.3913  22.718
 12.4718  22.5612
 12.5523  22.6958
 12.6328  22.8778
 12.7133  23.1564
 12.7938  23.2257
 12.8742  23.2981
 12.9548  23.7783
 13.0353  24.1396
 13.1158  24.9161
 13.1963  25.7151
 13.2768  26.7849
 13.3573  27.9705
 13.4378  28.7002
 13.5183  29.2813
 13.5988  29.8048
 13.6793  29.8207
 13.7598  29.5389
 13.8403  28.8942
 13.9208  28.8068
 14.0013  28.2132
 14.0818  27.2812
 14.1623  26.9076
 14.2428  26.5433
 14.3233  26.171
 14.4038  26.0707
 14.4843  25.6583
 14.5648  25.5712
 14.6453  25.426
 14.7258  25.1759
 14.8063  25.0336
 14.8868  25.0442
 14.9673  24.793
 15.0478  24.7576
 15.1283  24.8739
 15.2088  25.8699
 15.2892  24.7694
 15.3698  24.6126
 15.4503  24.4691
 15.5308  24.5846
 15.6113  24.5592
 15.6918  24.6261
 15.7723  24.7573
 15.8528  24.4546
 15.9332  24.6155
 16.0138  24.5445
 16.0943  24.6158
 16.1748  24.8509
 16.2553  25.1883
 16.3358  24.8892
 16.4163  24.6659
 16.4967  24.7042
 16.5773  24.5351
 16.6578  24.6035
 16.7383  24.6254
 16.8188  24.4382
 16.8992  24.4337
 16.9798  24.3177
 17.0603  24.1821
 17.1408  24.2773
 17.2213  24.227
 17.3017  24.1187
 17.3823  23.975
 17.4628  24.0093
 17.5433  24.0086
 17.6238  23.8473
 17.7042  23.8241
 17.7847  23.8179
 17.8653  23.6347
 17.9458  23.7709
 18.0263  23.9167
 18.1068  24.2325
 18.1872  23.6003
 18.2678  23.53
 18.3483  23.5829
 18.4288  23.57
 18.5093  23.462
 18.5897  23.4864
 18.6703  23.4217
 18.7508  23.459
 18.8313  23.517
 18.9118  23.5218
 18.9922  23.488
 19.0727  23.6185
 19.1533  23.5005
 19.2338  23.4935
 19.3143  23.5468
 19.3948  23.5424
 19.4752  23.6651
 19.5558  23.6089
 19.6363  23.5151
 19.7168  23.872
 19.7973  23.7424
 19.8777  23.8961
 19.9582  23.5101
 20.0388  23.6705
 20.1193  23.6218
 20.1998  23.6613
 20.2803  23.667
 20.3607  23.7065
 20.4413  23.6165
 20.5218  23.6232
 20.6023  23.7618
 20.6828  23.8077
 20.7632  23.9394
 20.8438  23.6362
 20.9243  23.8066
 21.0048  23.7901
 21.0853  23.8122
 21.1658  23.8549
 21.2462  23.8879
 21.3268  23.8465
 21.4073  23.7826
 21.4878  23.981
 21.5683  23.9742
 21.6487  24.025
 21.7293  24.1135
 21.8098  24.1038
 21.8903  24.0658
 21.9708  24.1285
 22.0512  24.2574
 22.1318  24.2873
 22.2123  24.3509
 22.2928  24.4506
 22.3733  24.4539
 22.4538  24.5402
 22.5343  24.6506
 22.6148  24.8981
 22.6953  25.1683
 22.7758  25.1845
 22.8563  25.519
 22.9367  25.7697
 22.9943  26.0791

File: Data_0012.chi
F:\20151113_APS_34IDE\\Brian\Particle1\OCV\Data_0012.tif
2-Theta Angle (Degrees)
Intensity
       2000
 0.07475  0.0000000E+00
 0.15525  0.0000000E+00
 0.23575  0.0000000E+00
 0.31625  0.0000000E+00
 0.39675  0.0000000E+00
 0.47725  0.0000000E+00
 0.55775  0.0000000E+00
 0.63825  0.0000000E+00
 0.71875  0.0000000E+00
 0.79925  0.0000000E+00
 0.87975  0.0000000E+00
 0.96025  0.0000000E+00
 1.04075  0.0000000E+00
 1.12125  0.0000000E+00
 1.20175  0.0000000E+00
 1.28225  0.0000000E+00
 1.36275  0.0000000E+00
 1.44325  0.0000000E+00
 1.52375  0.0000000E+00
 1.60425  0.0000000E+00
 1.68475  0.0000000E+00
 1.76525  0.0000000E+00
 1.84575  0.0000000E+00
 1.92625  0.0000000E+00
 2.00675  0.0000000E+00
 2.08725  0.0000000E+00
 2.16775  0.0000000E+00
 2.24825  0.0000000E+00
 2.32875  0.0000000E+00
 2.40925  0.0000000E+00
 2.48975  0.0000000E+00
 2.57025  0.0000000E+00
 2.65075  0.0000000E+00
 2.73125  0.0000000E+00
 2.81175  0.0000000E+00
 2.89225  35.4202
 2.97275  34.8239
 3.05325  36.7252
 3.13375  36.2734
 3.21425  35.5468
 3.29475  34.5545
 3.37525  35.5238
 3.45575  34.6271
 3.53625  33.9101
 3.61675  33.7212
 3.69725  33.38
 3.77775  33.1895
 3.85825  33.0762
 3.93875  32.9531
 4.01925  32.9393
 4.09975  32.7703
 4.18025  32.3442
 4.26075  32.4551
 4.34125  33.2351
 4.42175  32.784
 4.50225  32.489
 4.58275  33.094
 4.66325  32.7903
 4.74375  32.8413
 4.82425  32.6421
 4.90475  32.8506
 4.98525  32.9969
 5.06575  33.8353
 5.14625  33.7004
 5.22675  34.3759
 5.30725  34.1959
 5.38775  34.9389
 5.46825  35.0805
 5.54875  35.0598
 5.62925  35.2915
 5.70975  35.9495
 5.79025  35.8297
 5.87075  36.0072
 5.95125  40.5714
 6.03175  38.8998
 6.11225  36.9389
 6.19275  37.3131
 6.27325  37.6381
 6.35375  38.2105
 6.43425  38.8708
 6.51475  39.364
 6.59525  40.034
 6.67575  40.3176
 6.75625  40.8589
 6.83675  41.8973
 6.91725  42.3556
 6.99775  42.961
 7.07825  42.847
 7.15875  43.7065
 7.23925  43.7697
 7.31975  44.0756
 7.40025  44.9073
 7.48075  45.0079
 7.56125  45.0896
 7.64175  44.6574
 7.72225  44.817
 7.80275  44.9519
 7.88325  44.4896
 7.96375  44.2759
 8.04425  43.6401
 8.12475  43.1473
 8.20525  42.4533
 8.28575  41.7179
 8.36625  40.6497
 8.44675  39.4223
 8.52725  38.2691
 8.60775  36.977
 8.68825  35.7096
 8.76875  34.5311
 8.84925  33.3765
 8.92975  32.1209
 9.01025  31.0868
 9.09075  30.2066
 9.17125  29.5267
 9.25175  28.7469
 9.33225  27.842
 9.41275  27.508
 9.49325  26.7042
 9.57375  26.2096
 9.65425  25.8791
 9.73475  25.7122
 9.81525  25.1752
 9.89575  24.9003
 9.97625  24.8267
 10.0567  24.4825
 10.1373  24.1822
 10.2178  24.0867
 10.2982  23.8343
 10.3788  23.5427
 10.4593  23.4781
 10.5397  23.2496
 10.6203  23.306
 10.7007  23.1573
 10.7813  23.1054
 10.8618  23.0161
 10.9422  22.8899
 11.0228  22.7711
 11.1033  22.8508
 11.1837  22.7697
 11.2643  22.5919
 11.3447  22.5293
 11.4253  22.761
 11.5058  22.7612
 11.5862  23.693
 11.6668  22.6843
 11.7473  22.5815
 11.8277  22.6173
 11.9083  22.5978
 11.9887  22.8154
 12.0693  22.7353
 12.1498  22.705
 12.2302  22.5337
 12.3108  22.6154
 12.3913  22.72
 12.4718  22.711
 12.5523  22.8308
 12.6328  23.0691
 12.7133  23.2076
 12.7938  23.2556
 12.8742  23.5825
 12.9548  23.8447
 13.0353  24.2583
 13.1158  25.1241
 13.1963  25.7601
 13.2768  26.8047
 13.3573  28.1224
 13.4378  28.8054
 13.5183  29.6141
 13.5988  29.9458
 13.6793  29.9408
 13.7598  29.3762
 13.8403  29.1431
 13.9208  29.6884
 14.0013  29.2164
 14.0818  27.6611
 14.1623  27.0938
 14.2428  26.7765
 14.3233  26.2238
 14.4038  26.14
 14.4843  25.7184
 14.5648  25.6005
 14.6453  25.416
 14.7258  25.2761
 14.8063  25.1852
 14.8868  24.9944
 14.9673  24.9747
 15.0478  24.8079
 15.1283  24.8827
 15.2088  25.4213
 15.2892  24.8093
 15.3698  24.8031
 15.4503  24.641
 15.5308  24.5936
 15.6113  24.6992
 15.6918  24.706
 15.7723  24.6957
 15.8528  24.6613
 15.9332  24.7493
 16.0138  24.7693
 16.0943  24.9714
 16.1748  25.1803
 16.2553  30.6236
 16.3358  25.5292
 16.4163  25.0371
 16.4967  24.935
 16.5773  24.8002
 16.6578  24.7664
 16.7383  24.7149
 16.8188  24.615
 16.8992  24.6509
 16.9798  24.3535
 17.0603  24.155
 17.1408  24.3734
 17.2213  24.2556
 17.3017  24.1746
 17.3823  24.1161
 17.4628  24.1404
 17.5433  23.9685
 17.6238  24.0007
 17.7042  23.7981
 17.7847  23.6958
 17.8653  23.8326
 17.9458  23.7666
 18.0263  23.8609
 18.1068  24.2566
 18.1872  23.7457
 18.2678  23.7847
 18.3483  23.7152
 18.4288  23.694
 18.5093  23.6252
 18.5897  23.6911
 18.6703  23.5268
 18.7508  23.5051
 18.8313  23.5581
 18.9118  23.5461
 18.9922  23.4946
 19.0727  23.6552
 19.1533  23.5248
 19.2338  23.6874
 19.3143  23.6418
 19.3948  23.7263
 19.4752  23.47
 19.5558  23.7098
 19.6363  23.8293
 19.7168  24.0583
 19.7973  23.9057
 19.8777  24.2945
 19.9582  23.7236
 20.0388  23.742
 20.1193  23.7325
 20.1998  23.819
 20.2803  23.7998
 20.3607  23.7809
 20.4413  23.7817
 20.5218  23.7793
 20.6023  23.8336
 20.6828  23.901
 20.7632  24.1929
 20.8438  23.8379
 20.9243  23.9254
 21.0048  23.8989
 21.0853  24.0017
 21.1658  23.9234
 21.2462  23.9925
 21.3268  23.9982
 21.4073  23.9935
 21.4878  24.0737
 21.5683  24.0621
 21.6487  24.1298
 21.7293  24.264
 21.8098  24.151
 21.8903  24.313
 21.9708  24.2543
 22.0512  24.3318
 22.1318  24.6505
 22.2123  24.2703
 22.2928  24.5252
 22.3733  24.6115
 22.4538  24.7209
 22.5343  24.8531
 22.6148  24.9572
 22.6953  25.2289
 22.7758  25.3743
 22.8563  25.5868
 22.9367  25.9744
 22.9943  26.1924

File: Data_0013.chi
F:\20151113_APS_34IDE\\Brian\Particle1\OCV\Data_0013.tif
2-Theta Angle (Degrees)
Intensity
       2000
 0.07475  0.0000000E+00
 0.15525  0.0000000E+00
 0.23575  0.0000000E+00
 0.31625  0.0000000E+00
 0.39675  0.0000000E+00
 0.47725  0.0000000E+00
 0.55775  0.0000000E+00
 0.63825  0.0000000E+00
 0.71875  0.0000000E+00
 0.79925  0.0000000E+00
 0.87975  0.0000000E+00
 0.96025  0.0000000E+00
 1.04075  0.0000000E+00
 1.12125  0.0000000E+00
 1.20175  0.0000000E+00
 1.28225  0.0000000E+00
 1.36275  0.0000000E+00
 1.44325  0.0000000E+00
 1.52375  0.0000000E+00
 1.60425  0.0000000E+00
 1.68475  0.0000000E+00
 1.76525  0.0000000E+00
 1.84575  0.0000000E+00
 1.92625  0.0000000E+00
 2.00675  0.0000000E+00
 2.08725  0.0000000E+00
 2.16775  0.0000000E+00
 2.24825  0.0000000E+00
 2.32875  0.0000000E+00
 2.40925  0.0000000E+00
 2.48975  0.0000000E+00
 2.57025  0.0000000E+00
 2.65075  0.0000000E+00
 2.73125  0.0000000E+00
 2.81175  0.0000000E+00
 2.89225  35.1933
 2.97275  35.6089
 3.05325  36.3433
 3.13375  34.3404
 3.21425  35.0966
 3.29475  34.5688
 3.37525  35.0411
 3.45575  34.4191
 3.53625  34.2881
 3.61675  34.2728
 3.69725  33.3912
 3.77775  33.4508
 3.85825  33.2471
 3.93875  33.0756
 4.01925  32.6405
 4.09975  32.9006
 4.18025  32.6463
 4.26075  32.4357
 4.34125  32.5852
 4.42175  32.8662
 4.50225  32.8685
 4.58275  32.836
 4.66325  32.9921
 4.74375  32.7977
 4.82425  32.9957
 4.90475  33.2999
 4.98525  33.4405
 5.06575  33.7766
 5.14625  33.8789
 5.22675  33.8651
 5.30725  34.4626
 5.38775  34.7563
 5.46825  34.9317
 5.54875  34.931
 5.62925  35.5499
 5.70975  35.9974
 5.79025  36.3764
 5.87075  36.6003
 5.95125  41.1815
 6.03175  40.3309
 6.11225  37.2543
 6.19275  37.4439
 6.27325  38.1308
 6.35375  38.5493
 6.43425  38.9459
 6.51475  39.5561
 6.59525  39.9708
 6.67575  40.6002
 6.75625  41.1724
 6.83675  41.7998
 6.91725  42.57
 6.99775  42.5359
 7.07825  43.3785
 7.15875  43.6894
 7.23925  44.3278
 7.31975  44.4002
 7.40025  44.6659
 7.48075  44.8114
 7.56125  44.8125
 7.64175  44.9782
 7.72225  45.1881
 7.80275  45.0983
 7.88325  44.5947
 7.96375  44.316
 8.04425  43.8838
 8.12475  43.5735
 8.20525  42.5952
 8.28575  41.8489
 8.36625  40.8302
 8.44675  39.6811
 8.52725  38.4885
 8.60775  36.9812
 8.68825  35.899
 8.76875  34.5785
 8.84925  33.5891
 8.92975  32.5314
 9.01025  31.4056
 9.09075  30.4757
 9.17125  29.7471
 9.25175  28.8743
 9.33225  28.3314
 9.41275  27.6491
 9.49325  27.1338
 9.57375  26.543
 9.65425  26.2551
 9.73475  26.1009
 9.81525  25.5126
 9.89575  25.2894
 9.97625  24.9657
 10.0567  24.8634
 10.1373  24.6349
 10.2178  24.1782
 10.2982  24.0901
 10.3788  23.823
 10.4593  23.7643
 10.5397  23.5912
 10.6203  23.4433
 10.7007  23.4953
 10.7813  23.2088
 10.8618  23.2105
 10.9422  23.0127
 11.0228  22.9383
 11.1033  22.9996
 11.1837  22.7539
 11.2643  22.7358
 11.3447  22.7941
 11.4253  23.1614
 11.5058  23.4288
 11.5862  28.1566
 11.6668  23.7803
 11.7473  22.9011
 11.8277  22.8316
 11.9083  22.8016
 11.9887  23.4698
 12.0693  23.9668
 12.1498  23.5409
 12.2302  22.8903
 12.3108  22.8357
 12.3913  22.8122
 12.4718  22.8871
 12.5523  23.145
 12.6328  23.3007
 12.7133  23.2911
 12.7938  23.2906
 12.8742  23.8201
 12.9548  24.0997
 13.0353  24.4664
 13.1158  25.2215
 13.1963  25.9483
 13.2768  27.0656
 13.3573  27.9925
 13.4378  28.8352
 13.5183  29.6706
 13.5988  30.2408
 13.6793  30.245
 13.7598  29.7437
 13.8403  29.518
 13.9208  33.8505
 14.0013  32.2977
 14.0818  28.2612
 14.1623  27.4152
 14.2428  26.8792
 14.3233  26.6639
 14.4038  26.3471
 14.4843  26.0708
 14.5648  25.846
 14.6453  25.6845
 14.7258  25.6749
 14.8063  25.3559
 14.8868  25.4191
 14.9673  25.1097
 15.0478  25.186
 15.1283  25.2574
 15.2088  25.8835
 15.2892  24.941
 15.3698  25.0346
 15.4503  24.9002
 15.5308  24.8432
 15.6113  24.9931
 15.6918  24.966
 15.7723  24.8997
 15.8528  24.8073
 15.9332  24.8151
 16.0138  24.9665
 16.0943  25.0069
 16.1748  25.4678
 16.2553  29.0953
 16.3358  25.55
 16.4163  25.0878
 16.4967  25.0195
 16.5773  25.018
 16.6578  24.8428
 16.7383  24.9939
 16.8188  24.729
 16.8992  24.6422
 16.9798  24.5652
 17.0603  24.49
 17.1408  24.469
 17.2213  24.5388
 17.3017  24.4602
 17.3823  24.2111
 17.4628  24.2673
 17.5433  24.2455
 17.6238  24.1558
 17.7042  24.1789
 17.7847  24.0145
 17.8653  24.0535
 17.9458  24.1341
 18.0263  24.2753
 18.1068  24.8067
 18.1872  23.9959
 18.2678  23.8622
 18.3483  24.0449
 18.4288  24.0514
 18.5093  23.8063
 18.5897  23.8407
 18.6703  23.8857
 18.7508  23.9219
 18.8313  23.7565
 18.9118  23.8484
 18.9922  23.6666
 19.0727  23.8669
 19.1533  23.8664
 19.2338  23.6903
 19.3143  23.7237
 19.3948  23.9684
 19.4752  23.886
 19.5558  24.0468
 19.6363  24.1901
 19.7168  25.0427
 19.7973  24.8136
 19.8777  25.1903
 19.9582  24.2017
 20.0388  24.0277
 20.1193  24.0793
 20.1998  24.0272
 20.2803  23.9942
 20.3607  24.0393
 20.4413  24.1042
 20.5218  24.003
 20.6023  24.1191
 20.6828  24.4843
 20.7632  25.1832
 20.8438  24.2613
 20.9243  24.2931
 21.0048  24.224
 21.0853  24.1142
 21.1658  24.1309
 21.2462  24.1748
 21.3268  24.2018
 21.4073  24.0961
 21.4878  24.3531
 21.5683  24.2894
 21.6487  24.3912
 21.7293  24.432
 21.8098  24.5198
 21.8903  24.4354
 21.9708  24.5124
 22.0512  24.4668
 22.1318  24.6273
 22.2123  24.5819
 22.2928  24.6532
 22.3733  24.8613
 22.4538  24.9564
 22.5343  25.0127
 22.6148  25.1527
 22.6953  25.3354
 22.7758  25.4452
 22.8563  25.7185
 22.9367  26.1322
 22.9943  26.7035