Folder: scimap-tests/test-data-xrd/xrd-map-34-ID-E (part 29)

File: Data_0119.chi
F:\20151113_APS_34IDE\\Brian\Particle1\OCV\Data_0119.tif
2-Theta Angle (Degrees)
Intensity
       2000
 0.07475  0.0000000E+00
 0.15525  0.0000000E+00
 0.23575  0.0000000E+00
 0.31625  0.0000000E+00
 0.39675  0.0000000E+00
 0.47725  0.0000000E+00
 0.55775  0.0000000E+00
 0.63825  0.0000000E+00
 0.71875  0.0000000E+00
 0.79925  0.0000000E+00
 0.87975  0.0000000E+00
 0.96025  0.0000000E+00
 1.04075  0.0000000E+00
 1.12125  0.0000000E+00
 1.20175  0.0000000E+00
 1.28225  0.0000000E+00
 1.36275  0.0000000E+00
 1.44325  0.0000000E+00
 1.52375  0.0000000E+00
 1.60425  0.0000000E+00
 1.68475  0.0000000E+00
 1.76525  0.0000000E+00
 1.84575  0.0000000E+00
 1.92625  0.0000000E+00
 2.00675  0.0000000E+00
 2.08725  0.0000000E+00
 2.16775  0.0000000E+00
 2.24825  0.0000000E+00
 2.32875  0.0000000E+00
 2.40925  0.0000000E+00
 2.48975  0.0000000E+00
 2.57025  0.0000000E+00
 2.65075  0.0000000E+00
 2.73125  0.0000000E+00
 2.81175  0.0000000E+00
 2.89225  33.2002
 2.97275  36.4833
 3.05325  35.5461
 3.13375  34.4132
 3.21425  34.4955
 3.29475  34.1696
 3.37525  34.5537
 3.45575  33.5999
 3.53625  33.0367
 3.61675  33.0996
 3.69725  33.1521
 3.77775  32.4932
 3.85825  32.3221
 3.93875  32.4599
 4.01925  32.3612
 4.09975  32.6062
 4.18025  32.2678
 4.26075  32.1474
 4.34125  32.7758
 4.42175  32.3973
 4.50225  32.4694
 4.58275  32.5391
 4.66325  32.5594
 4.74375  32.3772
 4.82425  32.0751
 4.90475  32.4871
 4.98525  32.7861
 5.06575  33.341
 5.14625  33.4195
 5.22675  33.8513
 5.30725  34.0833
 5.38775  34.3039
 5.46825  34.7364
 5.54875  34.4858
 5.62925  35.119
 5.70975  35.3462
 5.79025  35.0279
 5.87075  35.2365
 5.95125  36.8844
 6.03175  36.8373
 6.11225  36.5186
 6.19275  36.4767
 6.27325  37.0564
 6.35375  37.8129
 6.43425  38.0355
 6.51475  38.8307
 6.59525  39.2106
 6.67575  39.8544
 6.75625  40.3956
 6.83675  41.2168
 6.91725  41.4502
 6.99775  41.8267
 7.07825  42.3382
 7.15875  42.7349
 7.23925  43.0693
 7.31975  43.1287
 7.40025  43.4401
 7.48075  43.5345
 7.56125  43.9115
 7.64175  44.0931
 7.72225  43.8775
 7.80275  43.6862
 7.88325  43.4089
 7.96375  43.2124
 8.04425  42.5055
 8.12475  42.2147
 8.20525  41.4428
 8.28575  40.2045
 8.36625  39.4372
 8.44675  38.1367
 8.52725  37.3472
 8.60775  35.6132
 8.68825  34.7804
 8.76875  33.3949
 8.84925  32.5525
 8.92975  31.1311
 9.01025  29.9651
 9.09075  29.2561
 9.17125  28.5891
 9.25175  27.5199
 9.33225  27.0642
 9.41275  26.4265
 9.49325  25.9685
 9.57375  25.5355
 9.65425  25.2974
 9.73475  24.7084
 9.81525  24.4544
 9.89575  24.2239
 9.97625  23.7994
 10.0567  23.4861
 10.1373  23.289
 10.2178  23.4033
 10.2982  22.9548
 10.3788  22.8137
 10.4593  22.8771
 10.5397  22.8769
 10.6203  22.5652
 10.7007  22.5213
 10.7813  22.4486
 10.8618  22.4289
 10.9422  22.2146
 11.0228  22.1112
 11.1033  22.1467
 11.1837  21.8775
 11.2643  22.0178
 11.3447  22.0776
 11.4253  22.2306
 11.5058  21.9786
 11.5862  22.9707
 11.6668  22.1046
 11.7473  21.8756
 11.8277  21.7816
 11.9083  22.0061
 11.9887  22.0413
 12.0693  22.2193
 12.1498  22.1418
 12.2302  21.9977
 12.3108  22.1632
 12.3913  22.1038
 12.4718  22.0062
 12.5523  22.329
 12.6328  22.2996
 12.7133  22.616
 12.7938  22.4128
 12.8742  22.909
 12.9548  23.1932
 13.0353  23.7403
 13.1158  24.4042
 13.1963  25.1848
 13.2768  26.0363
 13.3573  27.1149
 13.4378  28.0373
 13.5183  28.9731
 13.5988  29.5768
 13.6793  29.2144
 13.7598  28.8938
 13.8403  28.549
 13.9208  29.4143
 14.0013  28.8159
 14.0818  26.9658
 14.1623  26.5729
 14.2428  25.9191
 14.3233  25.6309
 14.4038  25.484
 14.4843  25.1484
 14.5648  25.1357
 14.6453  24.7572
 14.7258  24.6394
 14.8063  24.4233
 14.8868  24.4534
 14.9673  24.3407
 15.0478  24.38
 15.1283  24.3458
 15.2088  24.66
 15.2892  24.0997
 15.3698  24.1955
 15.4503  23.9867
 15.5308  24.0128
 15.6113  24.1451
 15.6918  24.1084
 15.7723  24.1867
 15.8528  24.2191
 15.9332  24.1767
 16.0138  24.1411
 16.0943  24.3227
 16.1748  24.3593
 16.2553  24.8737
 16.3358  24.3486
 16.4163  24.3417
 16.4967  24.1769
 16.5773  24.0994
 16.6578  24.0799
 16.7383  24.1461
 16.8188  24.0121
 16.8992  23.9552
 16.9798  23.7539
 17.0603  23.6704
 17.1408  23.7859
 17.2213  23.7368
 17.3017  23.5926
 17.3823  23.543
 17.4628  23.4933
 17.5433  23.3601
 17.6238  23.4307
 17.7042  23.313
 17.7847  23.2198
 17.8653  23.2756
 17.9458  23.3549
 18.0263  23.1989
 18.1068  23.2776
 18.1872  23.0332
 18.2678  23.1028
 18.3483  23.1129
 18.4288  23.0763
 18.5093  22.9064
 18.5897  22.9647
 18.6703  22.9785
 18.7508  22.9604
 18.8313  23.0614
 18.9118  23.0483
 18.9922  23.0302
 19.0727  23.0601
 19.1533  23.0209
 19.2338  22.9396
 19.3143  23.0104
 19.3948  23.2514
 19.4752  22.9993
 19.5558  23.0317
 19.6363  23.224
 19.7168  23.6456
 19.7973  23.4902
 19.8777  23.6698
 19.9582  23.1352
 20.0388  23.0829
 20.1193  23.2152
 20.1998  23.0776
 20.2803  23.1003
 20.3607  23.1058
 20.4413  23.1676
 20.5218  23.0255
 20.6023  23.1411
 20.6828  23.1861
 20.7632  23.9737
 20.8438  23.3098
 20.9243  23.3978
 21.0048  23.4385
 21.0853  23.4088
 21.1658  23.2428
 21.2462  23.334
 21.3268  23.2898
 21.4073  23.3011
 21.4878  23.5098
 21.5683  23.5535
 21.6487  23.6152
 21.7293  23.5512
 21.8098  23.6179
 21.8903  23.6083
 21.9708  23.7104
 22.0512  23.7177
 22.1318  23.906
 22.2123  23.9178
 22.2928  23.8189
 22.3733  24.0126
 22.4538  24.0296
 22.5343  24.3188
 22.6148  24.4341
 22.6953  24.6019
 22.7758  24.751
 22.8563  24.9494
 22.9367  25.3463
 22.9943  25.6315

File: Data_0120.chi
F:\20151113_APS_34IDE\\Brian\Particle1\OCV\Data_0120.tif
2-Theta Angle (Degrees)
Intensity
       2000
 0.07475  0.0000000E+00
 0.15525  0.0000000E+00
 0.23575  0.0000000E+00
 0.31625  0.0000000E+00
 0.39675  0.0000000E+00
 0.47725  0.0000000E+00
 0.55775  0.0000000E+00
 0.63825  0.0000000E+00
 0.71875  0.0000000E+00
 0.79925  0.0000000E+00
 0.87975  0.0000000E+00
 0.96025  0.0000000E+00
 1.04075  0.0000000E+00
 1.12125  0.0000000E+00
 1.20175  0.0000000E+00
 1.28225  0.0000000E+00
 1.36275  0.0000000E+00
 1.44325  0.0000000E+00
 1.52375  0.0000000E+00
 1.60425  0.0000000E+00
 1.68475  0.0000000E+00
 1.76525  0.0000000E+00
 1.84575  0.0000000E+00
 1.92625  0.0000000E+00
 2.00675  0.0000000E+00
 2.08725  0.0000000E+00
 2.16775  0.0000000E+00
 2.24825  0.0000000E+00
 2.32875  0.0000000E+00
 2.40925  0.0000000E+00
 2.48975  0.0000000E+00
 2.57025  0.0000000E+00
 2.65075  0.0000000E+00
 2.73125  0.0000000E+00
 2.81175  0.0000000E+00
 2.89225  35.8415
 2.97275  35.9096
 3.05325  34.6461
 3.13375  34.6682
 3.21425  33.4091
 3.29475  33.5285
 3.37525  33.9212
 3.45575  34.1464
 3.53625  33.5808
 3.61675  33.1398
 3.69725  33.041
 3.77775  33.3217
 3.85825  32.632
 3.93875  32.5715
 4.01925  32.4343
 4.09975  32.4048
 4.18025  31.8569
 4.26075  31.7666
 4.34125  32.3135
 4.42175  32.4185
 4.50225  32.1726
 4.58275  32.1782
 4.66325  32.8864
 4.74375  32.478
 4.82425  32.5617
 4.90475  32.3552
 4.98525  32.6628
 5.06575  33.4427
 5.14625  33.6599
 5.22675  33.8778
 5.30725  33.9946
 5.38775  34.1654
 5.46825  34.6935
 5.54875  34.7193
 5.62925  34.8009
 5.70975  34.9321
 5.79025  35.3669
 5.87075  35.545
 5.95125  36.6881
 6.03175  36.5941
 6.11225  36.0798
 6.19275  36.6897
 6.27325  37.2547
 6.35375  37.3723
 6.43425  38.3172
 6.51475  38.9805
 6.59525  39.2692
 6.67575  39.932
 6.75625  40.4832
 6.83675  41.4612
 6.91725  41.5781
 6.99775  41.671
 7.07825  42.3346
 7.15875  42.8978
 7.23925  43.2868
 7.31975  43.5065
 7.40025  43.6468
 7.48075  43.4584
 7.56125  43.7766
 7.64175  44.0257
 7.72225  43.7591
 7.80275  44.1632
 7.88325  43.8116
 7.96375  43.1752
 8.04425  42.8079
 8.12475  42.1169
 8.20525  41.5396
 8.28575  40.38
 8.36625  39.556
 8.44675  38.313
 8.52725  37.3935
 8.60775  36.0643
 8.68825  34.7521
 8.76875  33.6275
 8.84925  32.6711
 8.92975  31.2726
 9.01025  30.2655
 9.09075  29.501
 9.17125  28.8617
 9.25175  27.7615
 9.33225  26.9933
 9.41275  26.5238
 9.49325  26.2131
 9.57375  25.6447
 9.65425  24.9783
 9.73475  24.8103
 9.81525  24.552
 9.89575  24.1431
 9.97625  24.1425
 10.0567  24.0004
 10.1373  23.5731
 10.2178  23.366
 10.2982  23.1732
 10.3788  23.1339
 10.4593  22.8818
 10.5397  22.8894
 10.6203  22.7939
 10.7007  22.6125
 10.7813  22.6942
 10.8618  22.4326
 10.9422  22.4384
 11.0228  22.2898
 11.1033  22.218
 11.1837  22.0989
 11.2643  22.188
 11.3447  22.01
 11.4253  22.0636
 11.5058  22.0284
 11.5862  22.568
 11.6668  22.2133
 11.7473  21.8215
 11.8277  22.0441
 11.9083  22.1219
 11.9887  22.2366
 12.0693  22.5391
 12.1498  22.343
 12.2302  21.9747
 12.3108  22.2009
 12.3913  22.1885
 12.4718  22.2484
 12.5523  22.3747
 12.6328  22.5775
 12.7133  22.662
 12.7938  22.8251
 12.8742  22.9327
 12.9548  23.3304
 13.0353  23.6754
 13.1158  24.3248
 13.1963  25.3093
 13.2768  26.3185
 13.3573  27.4185
 13.4378  28.1907
 13.5183  28.879
 13.5988  29.2785
 13.6793  29.2903
 13.7598  28.8477
 13.8403  28.4578
 13.9208  28.6506
 14.0013  27.9716
 14.0818  26.9844
 14.1623  26.6498
 14.2428  26.0574
 14.3233  25.8541
 14.4038  25.6017
 14.4843  25.201
 14.5648  25.2162
 14.6453  24.9748
 14.7258  24.7812
 14.8063  24.6822
 14.8868  24.4476
 14.9673  24.419
 15.0478  24.6012
 15.1283  24.3706
 15.2088  24.4473
 15.2892  24.2431
 15.3698  24.1996
 15.4503  24.0831
 15.5308  24.0208
 15.6113  24.104
 15.6918  24.2299
 15.7723  24.2177
 15.8528  24.2136
 15.9332  24.4176
 16.0138  24.3
 16.0943  24.3318
 16.1748  24.5043
 16.2553  24.7916
 16.3358  24.5664
 16.4163  24.4061
 16.4967  24.1822
 16.5773  24.4251
 16.6578  24.3032
 16.7383  24.1716
 16.8188  24.11
 16.8992  24.1625
 16.9798  23.8818
 17.0603  23.8343
 17.1408  23.8486
 17.2213  23.8358
 17.3017  23.6026
 17.3823  23.6631
 17.4628  23.552
 17.5433  23.6299
 17.6238  23.6098
 17.7042  23.4933
 17.7847  23.4079
 17.8653  23.3339
 17.9458  23.3125
 18.0263  23.3874
 18.1068  23.5377
 18.1872  23.232
 18.2678  23.1454
 18.3483  23.2781
 18.4288  23.2288
 18.5093  23.208
 18.5897  23.1445
 18.6703  23.0967
 18.7508  23.068
 18.8313  23.0665
 18.9118  22.9811
 18.9922  22.9033
 19.0727  23.1793
 19.1533  23.0603
 19.2338  23.1963
 19.3143  23.2512
 19.3948  23.1413
 19.4752  23.0469
 19.5558  23.2051
 19.6363  23.3066
 19.7168  23.7001
 19.7973  23.4223
 19.8777  23.5483
 19.9582  23.2751
 20.0388  23.2138
 20.1193  23.3586
 20.1998  23.3906
 20.2803  23.256
 20.3607  23.2255
 20.4413  23.3699
 20.5218  23.3114
 20.6023  23.4005
 20.6828  23.3989
 20.7632  23.7539
 20.8438  23.4542
 20.9243  23.5794
 21.0048  23.481
 21.0853  23.5934
 21.1658  23.5854
 21.2462  23.5766
 21.3268  23.4599
 21.4073  23.8736
 21.4878  23.7785
 21.5683  23.6438
 21.6487  23.777
 21.7293  23.808
 21.8098  23.7646
 21.8903  23.7147
 21.9708  23.7378
 22.0512  23.9013
 22.1318  24.1094
 22.2123  23.9934
 22.2928  24.0984
 22.3733  24.0929
 22.4538  24.2929
 22.5343  24.4948
 22.6148  24.5175
 22.6953  24.9898
 22.7758  24.906
 22.8563  25.1672
 22.9367  25.451
 22.9943  25.9305

File: Data_0121.chi
F:\20151113_APS_34IDE\\Brian\Particle1\OCV\Data_0121.tif
2-Theta Angle (Degrees)
Intensity
       2000
 0.07475  0.0000000E+00
 0.15525  0.0000000E+00
 0.23575  0.0000000E+00
 0.31625  0.0000000E+00
 0.39675  0.0000000E+00
 0.47725  0.0000000E+00
 0.55775  0.0000000E+00
 0.63825  0.0000000E+00
 0.71875  0.0000000E+00
 0.79925  0.0000000E+00
 0.87975  0.0000000E+00
 0.96025  0.0000000E+00
 1.04075  0.0000000E+00
 1.12125  0.0000000E+00
 1.20175  0.0000000E+00
 1.28225  0.0000000E+00
 1.36275  0.0000000E+00
 1.44325  0.0000000E+00
 1.52375  0.0000000E+00
 1.60425  0.0000000E+00
 1.68475  0.0000000E+00
 1.76525  0.0000000E+00
 1.84575  0.0000000E+00
 1.92625  0.0000000E+00
 2.00675  0.0000000E+00
 2.08725  0.0000000E+00
 2.16775  0.0000000E+00
 2.24825  0.0000000E+00
 2.32875  0.0000000E+00
 2.40925  0.0000000E+00
 2.48975  0.0000000E+00
 2.57025  0.0000000E+00
 2.65075  0.0000000E+00
 2.73125  0.0000000E+00
 2.81175  0.0000000E+00
 2.89225  34.5653
 2.97275  35.5433
 3.05325  34.375
 3.13375  35.1879
 3.21425  34.2119
 3.29475  33.4782
 3.37525  34.4318
 3.45575  34.5782
 3.53625  34.0126
 3.61675  32.9919
 3.69725  33.0451
 3.77775  32.7526
 3.85825  32.404
 3.93875  32.1397
 4.01925  32.403
 4.09975  32.3453
 4.18025  31.984
 4.26075  31.8066
 4.34125  31.9361
 4.42175  31.7937
 4.50225  32.1054
 4.58275  32.3902
 4.66325  32.4217
 4.74375  32.3765
 4.82425  32.166
 4.90475  32.4581
 4.98525  32.8358
 5.06575  32.8632
 5.14625  33.5112
 5.22675  33.4644
 5.30725  33.9123
 5.38775  34.0001
 5.46825  34.5268
 5.54875  34.6685
 5.62925  34.7141
 5.70975  35.1992
 5.79025  35.1411
 5.87075  35.4638
 5.95125  36.9381
 6.03175  36.5283
 6.11225  36.1634
 6.19275  36.6122
 6.27325  36.9612
 6.35375  37.9546
 6.43425  37.8954
 6.51475  38.691
 6.59525  39.3354
 6.67575  39.9855
 6.75625  40.4187
 6.83675  41.1226
 6.91725  41.6914
 6.99775  41.9687
 7.07825  42.3827
 7.15875  42.8754
 7.23925  43.3523
 7.31975  43.37
 7.40025  43.8218
 7.48075  44.0514
 7.56125  44.1228
 7.64175  44.2963
 7.72225  43.9851
 7.80275  44.0225
 7.88325  43.6003
 7.96375  43.2625
 8.04425  43.1277
 8.12475  42.3794
 8.20525  41.4132
 8.28575  40.6264
 8.36625  39.5069
 8.44675  38.4093
 8.52725  37.4192
 8.60775  36.0464
 8.68825  34.8894
 8.76875  33.675
 8.84925  32.5416
 8.92975  31.2966
 9.01025  30.4996
 9.09075  29.5688
 9.17125  28.8065
 9.25175  27.8408
 9.33225  27.3997
 9.41275  26.8405
 9.49325  26.2307
 9.57375  25.5925
 9.65425  25.4233
 9.73475  25.1288
 9.81525  24.6826
 9.89575  24.4467
 9.97625  24.1324
 10.0567  24.064
 10.1373  23.5995
 10.2178  23.4861
 10.2982  23.344
 10.3788  23.1583
 10.4593  23.0706
 10.5397  22.7467
 10.6203  22.7411
 10.7007  22.7728
 10.7813  22.5944
 10.8618  22.4171
 10.9422  22.3631
 11.0228  22.2811
 11.1033  22.3971
 11.1837  22.1679
 11.2643  22.0371
 11.3447  22.0312
 11.4253  22.2098
 11.5058  22.2359
 11.5862  23.0648
 11.6668  22.1714
 11.7473  22.0562
 11.8277  22.0605
 11.9083  21.9406
 11.9887  22.1585
 12.0693  22.3163
 12.1498  22.2637
 12.2302  22.1341
 12.3108  22.244
 12.3913  22.385
 12.4718  22.3355
 12.5523  22.406
 12.6328  22.5535
 12.7133  22.5036
 12.7938  22.7385
 12.8742  23.1406
 12.9548  23.347
 13.0353  23.8962
 13.1158  24.4408
 13.1963  25.2094
 13.2768  26.2275
 13.3573  27.4092
 13.4378  28.2122
 13.5183  28.9946
 13.5988  29.3025
 13.6793  29.4403
 13.7598  29.0366
 13.8403  28.6902
 13.9208  28.5833
 14.0013  27.9834
 14.0818  27.1171
 14.1623  26.6791
 14.2428  26.2244
 14.3233  25.7698
 14.4038  25.7689
 14.4843  25.354
 14.5648  25.298
 14.6453  24.9998
 14.7258  24.7484
 14.8063  24.6959
 14.8868  24.5222
 14.9673  24.411
 15.0478  24.4051
 15.1283  24.3605
 15.2088  24.8119
 15.2892  24.0748
 15.3698  24.1854
 15.4503  24.2037
 15.5308  24.1551
 15.6113  24.0231
 15.6918  24.2268
 15.7723  24.1811
 15.8528  24.1864
 15.9332  24.2134
 16.0138  24.2261
 16.0943  24.3472
 16.1748  24.4728
 16.2553  24.8092
 16.3358  24.5164
 16.4163  24.4347
 16.4967  24.2244
 16.5773  24.1565
 16.6578  24.1565
 16.7383  24.1295
 16.8188  24.0078
 16.8992  24.0525
 16.9798  24.0151
 17.0603  23.7446
 17.1408  23.7771
 17.2213  23.9138
 17.3017  23.7861
 17.3823  23.5806
 17.4628  23.9154
 17.5433  23.5715
 17.6238  23.6155
 17.7042  23.4208
 17.7847  23.3383
 17.8653  23.3434
 17.9458  23.3856
 18.0263  23.4017
 18.1068  23.514
 18.1872  23.231
 18.2678  23.2021
 18.3483  23.2303
 18.4288  23.1824
 18.5093  23.1768
 18.5897  23.2309
 18.6703  23.1391
 18.7508  23.0547
 18.8313  23.0662
 18.9118  23.039
 18.9922  22.9738
 19.0727  23.1069
 19.1533  23.2006
 19.2338  23.0982
 19.3143  23.1757
 19.3948  23.1789
 19.4752  23.1379
 19.5558  23.256
 19.6363  23.2784
 19.7168  23.6126
 19.7973  23.4203
 19.8777  23.4829
 19.9582  23.2856
 20.0388  23.1348
 20.1193  23.2624
 20.1998  23.2842
 20.2803  23.356
 20.3607  23.261
 20.4413  23.3544
 20.5218  23.2484
 20.6023  23.4517
 20.6828  24.0089
 20.7632  23.6741
 20.8438  23.502
 20.9243  23.5433
 21.0048  23.4675
 21.0853  23.4914
 21.1658  23.4396
 21.2462  23.5849
 21.3268  23.5434
 21.4073  23.5851
 21.4878  23.5181
 21.5683  23.682
 21.6487  23.8116
 21.7293  23.7499
 21.8098  23.727
 21.8903  23.7876
 21.9708  23.9139
 22.0512  24.0633
 22.1318  23.9528
 22.2123  23.9501
 22.2928  24.1845
 22.3733  24.1323
 22.4538  24.2915
 22.5343  24.4338
 22.6148  24.5612
 22.6953  24.7764
 22.7758  25.0195
 22.8563  25.1928
 22.9367  25.4574
 22.9943  25.8021

File: Data_0122.chi
F:\20151113_APS_34IDE\\Brian\Particle1\OCV\Data_0122.tif
2-Theta Angle (Degrees)
Intensity
       2000
 0.07475  0.0000000E+00
 0.15525  0.0000000E+00
 0.23575  0.0000000E+00
 0.31625  0.0000000E+00
 0.39675  0.0000000E+00
 0.47725  0.0000000E+00
 0.55775  0.0000000E+00
 0.63825  0.0000000E+00
 0.71875  0.0000000E+00
 0.79925  0.0000000E+00
 0.87975  0.0000000E+00
 0.96025  0.0000000E+00
 1.04075  0.0000000E+00
 1.12125  0.0000000E+00
 1.20175  0.0000000E+00
 1.28225  0.0000000E+00
 1.36275  0.0000000E+00
 1.44325  0.0000000E+00
 1.52375  0.0000000E+00
 1.60425  0.0000000E+00
 1.68475  0.0000000E+00
 1.76525  0.0000000E+00
 1.84575  0.0000000E+00
 1.92625  0.0000000E+00
 2.00675  0.0000000E+00
 2.08725  0.0000000E+00
 2.16775  0.0000000E+00
 2.24825  0.0000000E+00
 2.32875  0.0000000E+00
 2.40925  0.0000000E+00
 2.48975  0.0000000E+00
 2.57025  0.0000000E+00
 2.65075  0.0000000E+00
 2.73125  0.0000000E+00
 2.81175  0.0000000E+00
 2.89225  35.1471
 2.97275  36.5702
 3.05325  36.3955
 3.13375  34.4065
 3.21425  35.2918
 3.29475  34.3838
 3.37525  34.5277
 3.45575  34.6475
 3.53625  33.4071
 3.61675  32.4868
 3.69725  33.2827
 3.77775  33.3115
 3.85825  32.4524
 3.93875  32.2797
 4.01925  33.1994
 4.09975  32.5039
 4.18025  31.2837
 4.26075  32.0764
 4.34125  32.6275
 4.42175  32.3437
 4.50225  32.3106
 4.58275  32.7061
 4.66325  32.7077
 4.74375  32.8293
 4.82425  32.3199
 4.90475  32.8864
 4.98525  32.7709
 5.06575  33.037
 5.14625  33.3089
 5.22675  33.74
 5.30725  34.2908
 5.38775  34.7705
 5.46825  34.652
 5.54875  35.0266
 5.62925  35.1266
 5.70975  35.1404
 5.79025  35.6142
 5.87075  35.8305
 5.95125  37.9278
 6.03175  39.2577
 6.11225  36.5186
 6.19275  36.7132
 6.27325  37.3314
 6.35375  37.8986
 6.43425  38.6136
 6.51475  39.078
 6.59525  39.6359
 6.67575  39.9622
 6.75625  40.6809
 6.83675  41.4053
 6.91725  41.3251
 6.99775  42.2142
 7.07825  42.5535
 7.15875  43.1399
 7.23925  43.3302
 7.31975  43.9079
 7.40025  44.0608
 7.48075  44.1551
 7.56125  44.5329
 7.64175  44.3058
 7.72225  44.4882
 7.80275  44.6443
 7.88325  43.8885
 7.96375  43.6856
 8.04425  43.4647
 8.12475  42.6591
 8.20525  41.7991
 8.28575  40.8576
 8.36625  40.1593
 8.44675  38.9407
 8.52725  37.6449
 8.60775  36.2873
 8.68825  35.3161
 8.76875  34.0392
 8.84925  33.1891
 8.92975  31.8268
 9.01025  30.7971
 9.09075  30.0488
 9.17125  29.2507
 9.25175  28.3597
 9.33225  27.6346
 9.41275  27.0053
 9.49325  26.8244
 9.57375  26.2915
 9.65425  25.6592
 9.73475  25.4923
 9.81525  25.0985
 9.89575  24.7337
 9.97625  24.4039
 10.0567  24.2699
 10.1373  24.0267
 10.2178  23.962
 10.2982  23.8129
 10.3788  23.5614
 10.4593  23.3045
 10.5397  23.0613
 10.6203  23.0752
 10.7007  23.0086
 10.7813  22.9884
 10.8618  22.8736
 10.9422  22.8013
 11.0228  22.653
 11.1033  22.5182
 11.1837  22.6436
 11.2643  22.3101
 11.3447  22.3942
 11.4253  22.6009
 11.5058  22.4598
 11.5862  23.6334
 11.6668  22.6336
 11.7473  22.4279
 11.8277  22.3652
 11.9083  22.5599
 11.9887  22.6936
 12.0693  22.8986
 12.1498  22.8452
 12.2302  22.3747
 12.3108  22.5081
 12.3913  22.5801
 12.4718  22.5984
 12.5523  23.2148
 12.6328  22.9017
 12.7133  22.9504
 12.7938  23.0352
 12.8742  23.3597
 12.9548  23.6164
 13.0353  24.0897
 13.1158  24.8317
 13.1963  25.5122
 13.2768  26.627
 13.3573  27.7932
 13.4378  28.5203
 13.5183  29.1484
 13.5988  29.5838
 13.6793  29.6384
 13.7598  29.0805
 13.8403  28.7999
 13.9208  29.0509
 14.0013  28.324
 14.0818  27.4246
 14.1623  26.7252
 14.2428  26.3299
 14.3233  26.2351
 14.4038  26.0629
 14.4843  25.6152
 14.5648  25.4544
 14.6453  25.323
 14.7258  25.0737
 14.8063  24.9889
 14.8868  24.8743
 14.9673  24.811
 15.0478  24.6352
 15.1283  24.7314
 15.2088  24.8848
 15.2892  24.5253
 15.3698  24.4907
 15.4503  24.4119
 15.5308  24.5112
 15.6113  24.4775
 15.6918  24.4706
 15.7723  24.4767
 15.8528  24.547
 15.9332  24.6275
 16.0138  24.5942
 16.0943  24.7546
 16.1748  24.8804
 16.2553  29.7027
 16.3358  25.2053
 16.4163  24.7124
 16.4967  24.6949
 16.5773  24.5086
 16.6578  24.3994
 16.7383  24.263
 16.8188  24.3282
 16.8992  24.26
 16.9798  24.2429
 17.0603  24.0546
 17.1408  24.2159
 17.2213  23.984
 17.3017  23.9633
 17.3823  24.1096
 17.4628  23.8272
 17.5433  23.8038
 17.6238  23.7179
 17.7042  23.6689
 17.7847  23.7008
 17.8653  23.694
 17.9458  23.6657
 18.0263  23.9298
 18.1068  23.828
 18.1872  23.5894
 18.2678  23.4749
 18.3483  23.532
 18.4288  23.5048
 18.5093  23.4347
 18.5897  23.5446
 18.6703  23.4775
 18.7508  23.4653
 18.8313  23.4184
 18.9118  23.4575
 18.9922  23.4558
 19.0727  23.474
 19.1533  23.4315
 19.2338  23.3906
 19.3143  23.5894
 19.3948  23.5775
 19.4752  23.5648
 19.5558  23.7541
 19.6363  23.99
 19.7168  24.3367
 19.7973  23.9278
 19.8777  24.372
 19.9582  23.76
 20.0388  23.5627
 20.1193  23.5669
 20.1998  23.4623
 20.2803  23.659
 20.3607  23.7368
 20.4413  23.7388
 20.5218  23.5828
 20.6023  23.7109
 20.6828  23.7896
 20.7632  24.3076
 20.8438  23.8247
 20.9243  23.8687
 21.0048  23.6899
 21.0853  23.8702
 21.1658  23.674
 21.2462  23.9396
 21.3268  24.454
 21.4073  23.9131
 21.4878  23.8975
 21.5683  23.9323
 21.6487  24.0033
 21.7293  23.9699
 21.8098  24.0631
 21.8903  24.1018
 21.9708  24.1592
 22.0512  24.1803
 22.1318  24.176
 22.2123  24.2134
 22.2928  24.3359
 22.3733  24.3628
 22.4538  24.5552
 22.5343  24.5859
 22.6148  24.8119
 22.6953  24.9333
 22.7758  25.0342
 22.8563  25.4
 22.9367  25.8071
 22.9943  26.0431