Folder: scimap-tests/test-data-xrd/xrd-map-34-ID-E (part 22)

File: Data_0090.chi
F:\20151113_APS_34IDE\\Brian\Particle1\OCV\Data_0090.tif
2-Theta Angle (Degrees)
Intensity
       2000
 0.07475  0.0000000E+00
 0.15525  0.0000000E+00
 0.23575  0.0000000E+00
 0.31625  0.0000000E+00
 0.39675  0.0000000E+00
 0.47725  0.0000000E+00
 0.55775  0.0000000E+00
 0.63825  0.0000000E+00
 0.71875  0.0000000E+00
 0.79925  0.0000000E+00
 0.87975  0.0000000E+00
 0.96025  0.0000000E+00
 1.04075  0.0000000E+00
 1.12125  0.0000000E+00
 1.20175  0.0000000E+00
 1.28225  0.0000000E+00
 1.36275  0.0000000E+00
 1.44325  0.0000000E+00
 1.52375  0.0000000E+00
 1.60425  0.0000000E+00
 1.68475  0.0000000E+00
 1.76525  0.0000000E+00
 1.84575  0.0000000E+00
 1.92625  0.0000000E+00
 2.00675  0.0000000E+00
 2.08725  0.0000000E+00
 2.16775  0.0000000E+00
 2.24825  0.0000000E+00
 2.32875  0.0000000E+00
 2.40925  0.0000000E+00
 2.48975  0.0000000E+00
 2.57025  0.0000000E+00
 2.65075  0.0000000E+00
 2.73125  0.0000000E+00
 2.81175  0.0000000E+00
 2.89225  34.4287
 2.97275  35.0314
 3.05325  36.6285
 3.13375  36.0281
 3.21425  36.0278
 3.29475  35.982
 3.37525  35.4102
 3.45575  34.8507
 3.53625  33.4063
 3.61675  33.3769
 3.69725  33.5994
 3.77775  33.2718
 3.85825  33.3826
 3.93875  32.6753
 4.01925  33.0408
 4.09975  32.3956
 4.18025  32.2434
 4.26075  32.7534
 4.34125  33.1814
 4.42175  32.8915
 4.50225  32.6244
 4.58275  32.6957
 4.66325  33.1519
 4.74375  33.0102
 4.82425  32.8905
 4.90475  33.2799
 4.98525  33.0538
 5.06575  33.8065
 5.14625  33.8451
 5.22675  34.4881
 5.30725  34.167
 5.38775  35.0775
 5.46825  35.2318
 5.54875  35.2423
 5.62925  35.8945
 5.70975  36.0984
 5.79025  36.6031
 5.87075  37.388
 5.95125  66.1359
 6.03175  45.1526
 6.11225  38.006
 6.19275  37.565
 6.27325  38.2093
 6.35375  38.5127
 6.43425  38.7157
 6.51475  39.9443
 6.59525  40.0199
 6.67575  40.7081
 6.75625  41.1693
 6.83675  42.1512
 6.91725  42.5202
 6.99775  42.4298
 7.07825  43.2207
 7.15875  43.8405
 7.23925  43.9219
 7.31975  44.6241
 7.40025  44.8103
 7.48075  44.8332
 7.56125  44.8649
 7.64175  44.778
 7.72225  44.8389
 7.80275  44.7555
 7.88325  44.3809
 7.96375  43.9653
 8.04425  43.8369
 8.12475  43.0595
 8.20525  42.194
 8.28575  41.0939
 8.36625  40.3098
 8.44675  38.9961
 8.52725  38.0707
 8.60775  36.5932
 8.68825  35.3541
 8.76875  34.0553
 8.84925  32.9052
 8.92975  31.6849
 9.01025  30.7888
 9.09075  29.8596
 9.17125  28.9417
 9.25175  28.1348
 9.33225  27.5325
 9.41275  27.0098
 9.49325  26.541
 9.57375  26.0977
 9.65425  25.6584
 9.73475  25.2803
 9.81525  25.0889
 9.89575  24.6599
 9.97625  24.4663
 10.0567  24.3348
 10.1373  24.1598
 10.2178  23.7614
 10.2982  23.5665
 10.3788  23.5912
 10.4593  23.2921
 10.5397  23.4628
 10.6203  23.104
 10.7007  23.2273
 10.7813  23.0443
 10.8618  23.0177
 10.9422  22.8539
 11.0228  22.6593
 11.1033  22.5793
 11.1837  22.5269
 11.2643  22.6521
 11.3447  22.5787
 11.4253  22.9883
 11.5058  23.7257
 11.5862  34.4482
 11.6668  26.3736
 11.7473  23.0543
 11.8277  22.8176
 11.9083  22.7857
 11.9887  23.5811
 12.0693  24.5118
 12.1498  25.6731
 12.2302  22.6773
 12.3108  22.7478
 12.3913  22.7588
 12.4718  22.5999
 12.5523  22.6694
 12.6328  23.0439
 12.7133  23.0944
 12.7938  23.1376
 12.8742  23.4449
 12.9548  23.9461
 13.0353  24.2778
 13.1158  25.1702
 13.1963  25.733
 13.2768  26.66
 13.3573  27.8653
 13.4378  28.6893
 13.5183  29.4628
 13.5988  30.041
 13.6793  30.0009
 13.7598  29.7487
 13.8403  29.9329
 13.9208  37.2841
 14.0013  36.4437
 14.0818  28.3136
 14.1623  27.5098
 14.2428  26.9488
 14.3233  26.3535
 14.4038  25.9705
 14.4843  25.7601
 14.5648  25.7373
 14.6453  25.4129
 14.7258  25.2497
 14.8063  25.1427
 14.8868  25.1016
 14.9673  25.0287
 15.0478  24.9375
 15.1283  25.4264
 15.2088  28.7566
 15.2892  25.0973
 15.3698  24.7367
 15.4503  24.6684
 15.5308  24.9439
 15.6113  24.7243
 15.6918  24.7338
 15.7723  24.6768
 15.8528  24.7075
 15.9332  24.6364
 16.0138  24.8364
 16.0943  24.9375
 16.1748  25.1479
 16.2553  27.7249
 16.3358  25.2067
 16.4163  24.9659
 16.4967  24.8535
 16.5773  24.7606
 16.6578  24.6044
 16.7383  24.6665
 16.8188  24.4547
 16.8992  24.6465
 16.9798  24.4026
 17.0603  24.5085
 17.1408  24.3797
 17.2213  24.5219
 17.3017  24.3019
 17.3823  24.2489
 17.4628  24.1366
 17.5433  24.05
 17.6238  23.9522
 17.7042  24.0105
 17.7847  24.1498
 17.8653  24.0065
 17.9458  24.2232
 18.0263  29.1317
 18.1068  28.2372
 18.1872  24.6872
 18.2678  23.8478
 18.3483  23.734
 18.4288  23.8408
 18.5093  23.5669
 18.5897  23.5846
 18.6703  23.4931
 18.7508  23.5603
 18.8313  23.5579
 18.9118  23.6002
 18.9922  23.4754
 19.0727  23.6468
 19.1533  23.6247
 19.2338  23.7379
 19.3143  23.7297
 19.3948  23.7454
 19.4752  23.8496
 19.5558  23.9823
 19.6363  24.6796
 19.7168  32.2949
 19.7973  27.4963
 19.8777  29.3582
 19.9582  24.4559
 20.0388  23.9497
 20.1193  24.0117
 20.1998  23.8518
 20.2803  23.8518
 20.3607  23.9595
 20.4413  24.0892
 20.5218  24.2091
 20.6023  24.6197
 20.6828  26.4436
 20.7632  43.1015
 20.8438  26.2521
 20.9243  24.7713
 21.0048  24.3204
 21.0853  24.1969
 21.1658  24.0184
 21.2462  23.9725
 21.3268  24.0359
 21.4073  24.0582
 21.4878  24.0774
 21.5683  24.1651
 21.6487  24.2477
 21.7293  24.2893
 21.8098  24.2162
 21.8903  24.2413
 21.9708  24.289
 22.0512  24.3231
 22.1318  24.4678
 22.2123  24.4188
 22.2928  24.4418
 22.3733  24.5896
 22.4538  24.7106
 22.5343  24.8178
 22.6148  25.0031
 22.6953  25.2116
 22.7758  25.3367
 22.8563  25.6633
 22.9367  25.9757
 22.9943  26.3547

File: Data_0091.chi
F:\20151113_APS_34IDE\\Brian\Particle1\OCV\Data_0091.tif
2-Theta Angle (Degrees)
Intensity
       2000
 0.07475  0.0000000E+00
 0.15525  0.0000000E+00
 0.23575  0.0000000E+00
 0.31625  0.0000000E+00
 0.39675  0.0000000E+00
 0.47725  0.0000000E+00
 0.55775  0.0000000E+00
 0.63825  0.0000000E+00
 0.71875  0.0000000E+00
 0.79925  0.0000000E+00
 0.87975  0.0000000E+00
 0.96025  0.0000000E+00
 1.04075  0.0000000E+00
 1.12125  0.0000000E+00
 1.20175  0.0000000E+00
 1.28225  0.0000000E+00
 1.36275  0.0000000E+00
 1.44325  0.0000000E+00
 1.52375  0.0000000E+00
 1.60425  0.0000000E+00
 1.68475  0.0000000E+00
 1.76525  0.0000000E+00
 1.84575  0.0000000E+00
 1.92625  0.0000000E+00
 2.00675  0.0000000E+00
 2.08725  0.0000000E+00
 2.16775  0.0000000E+00
 2.24825  0.0000000E+00
 2.32875  0.0000000E+00
 2.40925  0.0000000E+00
 2.48975  0.0000000E+00
 2.57025  0.0000000E+00
 2.65075  0.0000000E+00
 2.73125  0.0000000E+00
 2.81175  0.0000000E+00
 2.89225  35.903
 2.97275  35.635
 3.05325  35.9486
 3.13375  35.238
 3.21425  34.5144
 3.29475  33.6944
 3.37525  34.4993
 3.45575  34.798
 3.53625  34.3572
 3.61675  33.4857
 3.69725  33.4661
 3.77775  33.1917
 3.85825  32.8643
 3.93875  33.109
 4.01925  32.9846
 4.09975  32.8026
 4.18025  32.3625
 4.26075  32.7445
 4.34125  32.8334
 4.42175  32.8734
 4.50225  32.7358
 4.58275  32.7389
 4.66325  33.4365
 4.74375  32.7925
 4.82425  32.8834
 4.90475  33.1144
 4.98525  33.6037
 5.06575  33.6035
 5.14625  34.0825
 5.22675  33.8799
 5.30725  34.3298
 5.38775  35.0981
 5.46825  34.8474
 5.54875  35.6265
 5.62925  35.6929
 5.70975  35.8434
 5.79025  35.9834
 5.87075  36.571
 5.95125  45.5751
 6.03175  43.6829
 6.11225  37.3349
 6.19275  37.2401
 6.27325  37.7547
 6.35375  38.3538
 6.43425  38.7484
 6.51475  39.454
 6.59525  39.8025
 6.67575  40.3417
 6.75625  40.9571
 6.83675  41.527
 6.91725  42.4099
 6.99775  42.2271
 7.07825  42.9719
 7.15875  43.2416
 7.23925  43.8164
 7.31975  44.1036
 7.40025  44.3017
 7.48075  44.653
 7.56125  44.3775
 7.64175  44.8703
 7.72225  44.4924
 7.80275  44.1961
 7.88325  43.9542
 7.96375  43.7236
 8.04425  43.3067
 8.12475  42.4406
 8.20525  41.7592
 8.28575  41.113
 8.36625  40.8242
 8.44675  38.816
 8.52725  37.5182
 8.60775  36.3706
 8.68825  35.0762
 8.76875  33.8862
 8.84925  32.9801
 8.92975  31.5068
 9.01025  30.6582
 9.09075  29.5854
 9.17125  28.9567
 9.25175  28.1278
 9.33225  27.3077
 9.41275  26.654
 9.49325  26.22
 9.57375  25.8912
 9.65425  25.5929
 9.73475  25.138
 9.81525  24.8733
 9.89575  24.5358
 9.97625  24.3556
 10.0567  24.0281
 10.1373  23.833
 10.2178  23.7373
 10.2982  23.6106
 10.3788  23.428
 10.4593  23.2365
 10.5397  23.0628
 10.6203  22.9313
 10.7007  22.7579
 10.7813  22.8587
 10.8618  22.8554
 10.9422  22.5251
 11.0228  22.5486
 11.1033  22.4807
 11.1837  22.4658
 11.2643  22.5189
 11.3447  22.514
 11.4253  22.9101
 11.5058  23.5936
 11.5862  33.9868
 11.6668  24.9959
 11.7473  22.9328
 11.8277  22.7006
 11.9083  22.8783
 11.9887  24.1349
 12.0693  25.1373
 12.1498  24.3848
 12.2302  22.7743
 12.3108  22.6045
 12.3913  22.6135
 12.4718  22.5858
 12.5523  22.7893
 12.6328  22.8872
 12.7133  22.9528
 12.7938  23.1135
 12.8742  23.3744
 12.9548  23.8315
 13.0353  24.2416
 13.1158  24.9151
 13.1963  25.7216
 13.2768  26.8232
 13.3573  28.0634
 13.4378  28.5469
 13.5183  29.4467
 13.5988  29.7792
 13.6793  29.6665
 13.7598  29.5787
 13.8403  29.6983
 13.9208  35.732
 14.0013  34.7492
 14.0818  27.958
 14.1623  27.1623
 14.2428  26.5685
 14.3233  26.1621
 14.4038  26.0061
 14.4843  25.753
 14.5648  25.7954
 14.6453  25.5083
 14.7258  25.2765
 14.8063  25.0524
 14.8868  24.969
 14.9673  24.8398
 15.0478  24.8534
 15.1283  25.3572
 15.2088  27.5439
 15.2892  24.8336
 15.3698  24.7955
 15.4503  24.6237
 15.5308  24.6775
 15.6113  24.6538
 15.6918  24.5239
 15.7723  24.6478
 15.8528  24.6656
 15.9332  24.8554
 16.0138  24.7884
 16.0943  24.7182
 16.1748  24.9965
 16.2553  26.9852
 16.3358  25.1327
 16.4163  24.8718
 16.4967  24.7891
 16.5773  24.6109
 16.6578  24.6814
 16.7383  24.558
 16.8188  24.4736
 16.8992  24.3777
 16.9798  24.4719
 17.0603  24.2017
 17.1408  24.3385
 17.2213  24.3119
 17.3017  24.2976
 17.3823  24.1195
 17.4628  24.0635
 17.5433  23.9462
 17.6238  23.8911
 17.7042  24.0247
 17.7847  23.9908
 17.8653  24.018
 17.9458  24.2491
 18.0263  25.2664
 18.1068  33.7014
 18.1872  24.9283
 18.2678  23.9571
 18.3483  23.7358
 18.4288  23.7071
 18.5093  23.749
 18.5897  23.9073
 18.6703  23.5585
 18.7508  23.6007
 18.8313  23.455
 18.9118  23.4667
 18.9922  23.4768
 19.0727  23.611
 19.1533  23.7231
 19.2338  23.673
 19.3143  23.6827
 19.3948  23.667
 19.4752  23.8558
 19.5558  23.8732
 19.6363  24.6105
 19.7168  27.2529
 19.7973  30.3454
 19.8777  28.5293
 19.9582  24.4887
 20.0388  23.9816
 20.1193  23.9153
 20.1998  23.9834
 20.2803  23.9822
 20.3607  23.7056
 20.4413  23.8411
 20.5218  23.8094
 20.6023  23.912
 20.6828  24.6638
 20.7632  27.5225
 20.8438  24.5402
 20.9243  24.1118
 21.0048  23.9252
 21.0853  23.9459
 21.1658  23.8784
 21.2462  23.9901
 21.3268  23.9863
 21.4073  23.9054
 21.4878  24.0629
 21.5683  24.0073
 21.6487  24.048
 21.7293  24.1486
 21.8098  24.106
 21.8903  24.2029
 21.9708  24.2036
 22.0512  24.3708
 22.1318  24.3534
 22.2123  24.3492
 22.2928  24.5318
 22.3733  24.5315
 22.4538  24.636
 22.5343  24.9035
 22.6148  24.9757
 22.6953  25.129
 22.7758  25.3561
 22.8563  25.5997
 22.9367  25.9833
 22.9943  26.5105

File: Data_0092.chi
F:\20151113_APS_34IDE\\Brian\Particle1\OCV\Data_0092.tif
2-Theta Angle (Degrees)
Intensity
       2000
 0.07475  0.0000000E+00
 0.15525  0.0000000E+00
 0.23575  0.0000000E+00
 0.31625  0.0000000E+00
 0.39675  0.0000000E+00
 0.47725  0.0000000E+00
 0.55775  0.0000000E+00
 0.63825  0.0000000E+00
 0.71875  0.0000000E+00
 0.79925  0.0000000E+00
 0.87975  0.0000000E+00
 0.96025  0.0000000E+00
 1.04075  0.0000000E+00
 1.12125  0.0000000E+00
 1.20175  0.0000000E+00
 1.28225  0.0000000E+00
 1.36275  0.0000000E+00
 1.44325  0.0000000E+00
 1.52375  0.0000000E+00
 1.60425  0.0000000E+00
 1.68475  0.0000000E+00
 1.76525  0.0000000E+00
 1.84575  0.0000000E+00
 1.92625  0.0000000E+00
 2.00675  0.0000000E+00
 2.08725  0.0000000E+00
 2.16775  0.0000000E+00
 2.24825  0.0000000E+00
 2.32875  0.0000000E+00
 2.40925  0.0000000E+00
 2.48975  0.0000000E+00
 2.57025  0.0000000E+00
 2.65075  0.0000000E+00
 2.73125  0.0000000E+00
 2.81175  0.0000000E+00
 2.89225  36.0617
 2.97275  35.9367
 3.05325  36.0234
 3.13375  35.6457
 3.21425  35.8344
 3.29475  35.5091
 3.37525  34.4154
 3.45575  34.8493
 3.53625  33.9189
 3.61675  33.9845
 3.69725  33.1675
 3.77775  32.8158
 3.85825  32.364
 3.93875  33.1634
 4.01925  33.289
 4.09975  32.6121
 4.18025  31.9945
 4.26075  32.5553
 4.34125  32.6519
 4.42175  32.6783
 4.50225  32.6012
 4.58275  32.674
 4.66325  33.2007
 4.74375  32.9367
 4.82425  32.6836
 4.90475  32.9598
 4.98525  33.2368
 5.06575  33.3997
 5.14625  33.739
 5.22675  34.2643
 5.30725  34.3104
 5.38775  34.8415
 5.46825  35.1888
 5.54875  35.1651
 5.62925  35.773
 5.70975  35.6694
 5.79025  36.3405
 5.87075  37.281
 5.95125  53.8731
 6.03175  49.9152
 6.11225  37.7597
 6.19275  37.4245
 6.27325  37.877
 6.35375  38.2541
 6.43425  38.7437
 6.51475  39.546
 6.59525  39.9055
 6.67575  40.5197
 6.75625  41.2519
 6.83675  41.7323
 6.91725  42.2857
 6.99775  42.5372
 7.07825  43.1916
 7.15875  43.4526
 7.23925  43.6046
 7.31975  43.9649
 7.40025  44.2167
 7.48075  44.6598
 7.56125  44.5985
 7.64175  44.6355
 7.72225  44.436
 7.80275  44.2616
 7.88325  43.987
 7.96375  43.854
 8.04425  43.4489
 8.12475  42.9322
 8.20525  42.1095
 8.28575  41.0922
 8.36625  40.2371
 8.44675  38.8984
 8.52725  37.6699
 8.60775  36.5512
 8.68825  35.1566
 8.76875  34.0101
 8.84925  32.8723
 8.92975  31.7743
 9.01025  30.6584
 9.09075  29.8713
 9.17125  28.9202
 9.25175  28.13
 9.33225  27.4541
 9.41275  26.93
 9.49325  26.343
 9.57375  25.8747
 9.65425  25.6697
 9.73475  25.2769
 9.81525  25.0971
 9.89575  24.6937
 9.97625  24.6318
 10.0567  24.3159
 10.1373  24.0942
 10.2178  23.8251
 10.2982  23.6028
 10.3788  23.4854
 10.4593  23.2224
 10.5397  23.2634
 10.6203  23.3691
 10.7007  23.006
 10.7813  22.9859
 10.8618  22.8222
 10.9422  22.6817
 11.0228  22.5386
 11.1033  22.5834
 11.1837  22.4342
 11.2643  22.5206
 11.3447  22.618
 11.4253  22.9291
 11.5058  23.2346
 11.5862  29.7097
 11.6668  24.1456
 11.7473  22.6179
 11.8277  22.687
 11.9083  22.6978
 11.9887  24.416
 12.0693  24.9087
 12.1498  24.964
 12.2302  22.5864
 12.3108  22.719
 12.3913  22.7947
 12.4718  22.7174
 12.5523  22.8936
 12.6328  22.9599
 12.7133  23.1845
 12.7938  23.2841
 12.8742  23.4904
 12.9548  23.733
 13.0353  24.2531
 13.1158  25.0061
 13.1963  25.8306
 13.2768  26.6135
 13.3573  27.649
 13.4378  28.6307
 13.5183  29.4085
 13.5988  29.815
 13.6793  30.0114
 13.7598  29.6055
 13.8403  29.7447
 13.9208  37.6384
 14.0013  38.8529
 14.0818  28.3463
 14.1623  27.2907
 14.2428  26.9552
 14.3233  26.3318
 14.4038  26.2311
 14.4843  25.8847
 14.5648  25.8068
 14.6453  25.4699
 14.7258  25.3374
 14.8063  25.2692
 14.8868  25.0854
 14.9673  24.9426
 15.0478  25.1267
 15.1283  25.4553
 15.2088  29.0679
 15.2892  24.9987
 15.3698  24.8252
 15.4503  24.7322
 15.5308  24.7718
 15.6113  24.6956
 15.6918  24.7105
 15.7723  24.6111
 15.8528  24.6762
 15.9332  24.824
 16.0138  24.7948
 16.0943  24.8355
 16.1748  24.9394
 16.2553  26.4376
 16.3358  25.2172
 16.4163  24.7314
 16.4967  24.7437
 16.5773  24.7696
 16.6578  24.7903
 16.7383  24.6145
 16.8188  24.6063
 16.8992  24.52
 16.9798  24.5265
 17.0603  24.2627
 17.1408  24.3592
 17.2213  24.3643
 17.3017  24.2897
 17.3823  24.1069
 17.4628  24.1294
 17.5433  24.1348
 17.6238  23.9264
 17.7042  23.9988
 17.7847  23.9229
 17.8653  23.9627
 17.9458  24.0931
 18.0263  25.4068
 18.1068  27.6838
 18.1872  24.4749
 18.2678  23.7861
 18.3483  23.8741
 18.4288  23.7377
 18.5093  23.6353
 18.5897  23.7221
 18.6703  23.5487
 18.7508  23.5964
 18.8313  23.6918
 18.9118  23.6614
 18.9922  23.737
 19.0727  23.6941
 19.1533  23.5636
 19.2338  23.6942
 19.3143  23.6174
 19.3948  23.8365
 19.4752  23.8086
 19.5558  23.9221
 19.6363  24.436
 19.7168  28.7753
 19.7973  26.8858
 19.8777  31.1302
 19.9582  24.715
 20.0388  24.1972
 20.1193  23.9927
 20.1998  23.9274
 20.2803  23.8568
 20.3607  23.8722
 20.4413  23.9095
 20.5218  24.0133
 20.6023  23.9843
 20.6828  24.6852
 20.7632  27.7633
 20.8438  24.9353
 20.9243  24.1946
 21.0048  24.1094
 21.0853  23.9762
 21.1658  23.9694
 21.2462  24.0564
 21.3268  24.0572
 21.4073  24.1275
 21.4878  24.162
 21.5683  24.1478
 21.6487  24.234
 21.7293  24.1978
 21.8098  24.3744
 21.8903  24.161
 21.9708  24.3385
 22.0512  24.4466
 22.1318  24.3852
 22.2123  24.3937
 22.2928  24.5153
 22.3733  24.5635
 22.4538  24.841
 22.5343  24.9282
 22.6148  25.1563
 22.6953  25.2187
 22.7758  25.3456
 22.8563  25.6852
 22.9367  26.1909
 22.9943  26.34

File: Data_0093.chi
F:\20151113_APS_34IDE\\Brian\Particle1\OCV\Data_0093.tif
2-Theta Angle (Degrees)
Intensity
       2000
 0.07475  0.0000000E+00
 0.15525  0.0000000E+00
 0.23575  0.0000000E+00
 0.31625  0.0000000E+00
 0.39675  0.0000000E+00
 0.47725  0.0000000E+00
 0.55775  0.0000000E+00
 0.63825  0.0000000E+00
 0.71875  0.0000000E+00
 0.79925  0.0000000E+00
 0.87975  0.0000000E+00
 0.96025  0.0000000E+00
 1.04075  0.0000000E+00
 1.12125  0.0000000E+00
 1.20175  0.0000000E+00
 1.28225  0.0000000E+00
 1.36275  0.0000000E+00
 1.44325  0.0000000E+00
 1.52375  0.0000000E+00
 1.60425  0.0000000E+00
 1.68475  0.0000000E+00
 1.76525  0.0000000E+00
 1.84575  0.0000000E+00
 1.92625  0.0000000E+00
 2.00675  0.0000000E+00
 2.08725  0.0000000E+00
 2.16775  0.0000000E+00
 2.24825  0.0000000E+00
 2.32875  0.0000000E+00
 2.40925  0.0000000E+00
 2.48975  0.0000000E+00
 2.57025  0.0000000E+00
 2.65075  0.0000000E+00
 2.73125  0.0000000E+00
 2.81175  0.0000000E+00
 2.89225  34.0152
 2.97275  35.614
 3.05325  36.4631
 3.13375  34.9952
 3.21425  35.038
 3.29475  34.8739
 3.37525  34.5339
 3.45575  33.7751
 3.53625  33.9515
 3.61675  32.6818
 3.69725  33.5218
 3.77775  33.0685
 3.85825  32.8006
 3.93875  32.8704
 4.01925  32.6659
 4.09975  32.1233
 4.18025  32.2613
 4.26075  32.1627
 4.34125  32.4544
 4.42175  31.9576
 4.50225  32.188
 4.58275  32.5327
 4.66325  32.8951
 4.74375  32.4933
 4.82425  32.6674
 4.90475  32.8304
 4.98525  33.0868
 5.06575  33.317
 5.14625  33.6562
 5.22675  34.17
 5.30725  33.9858
 5.38775  34.6909
 5.46825  34.7017
 5.54875  34.9713
 5.62925  35.2117
 5.70975  35.5443
 5.79025  36.0171
 5.87075  36.5284
 5.95125  49.8602
 6.03175  46.7971
 6.11225  37.6462
 6.19275  37.4915
 6.27325  37.8826
 6.35375  38.4472
 6.43425  38.9607
 6.51475  39.1994
 6.59525  39.6039
 6.67575  40.2744
 6.75625  40.8925
 6.83675  41.6072
 6.91725  42.2119
 6.99775  42.5277
 7.07825  43.1506
 7.15875  43.2771
 7.23925  43.7442
 7.31975  43.9779
 7.40025  44.0233
 7.48075  44.1864
 7.56125  44.1919
 7.64175  44.4317
 7.72225  44.327
 7.80275  44.6734
 7.88325  44.2619
 7.96375  43.7854
 8.04425  43.4385
 8.12475  42.8501
 8.20525  41.8367
 8.28575  40.9809
 8.36625  39.9104
 8.44675  38.6736
 8.52725  37.8877
 8.60775  36.5174
 8.68825  35.1813
 8.76875  33.9274
 8.84925  32.9384
 8.92975  31.6335
 9.01025  30.6987
 9.09075  29.8303
 9.17125  28.8968
 9.25175  28.2471
 9.33225  27.7302
 9.41275  26.9559
 9.49325  26.7413
 9.57375  26.0711
 9.65425  25.6849
 9.73475  25.271
 9.81525  25.0049
 9.89575  24.7342
 9.97625  24.3381
 10.0567  24.1437
 10.1373  23.7922
 10.2178  23.7458
 10.2982  23.7869
 10.3788  23.5072
 10.4593  23.3842
 10.5397  23.1437
 10.6203  23.2344
 10.7007  22.9728
 10.7813  22.8876
 10.8618  22.8091
 10.9422  22.7938
 11.0228  22.7191
 11.1033  22.6473
 11.1837  22.6649
 11.2643  22.5937
 11.3447  22.6351
 11.4253  23.0467
 11.5058  23.4344
 11.5862  33.9606
 11.6668  24.2244
 11.7473  22.7772
 11.8277  22.7785
 11.9083  22.9272
 11.9887  27.4987
 12.0693  26.3551
 12.1498  25.2353
 12.2302  22.913
 12.3108  22.8332
 12.3913  22.7746
 12.4718  22.8278
 12.5523  22.6906
 12.6328  22.8597
 12.7133  23.0604
 12.7938  23.3934
 12.8742  23.6124
 12.9548  23.7294
 13.0353  24.321
 13.1158  25.0349
 13.1963  25.814
 13.2768  26.7272
 13.3573  27.81
 13.4378  28.6215
 13.5183  29.6734
 13.5988  29.9952
 13.6793  30.25
 13.7598  30.2925
 13.8403  30.8948
 13.9208  47.9643
 14.0013  60.503
 14.0818  29.4412
 14.1623  27.8661
 14.2428  26.8621
 14.3233  26.4961
 14.4038  26.2729
 14.4843  25.8378
 14.5648  25.5728
 14.6453  25.4641
 14.7258  25.2166
 14.8063  25.2237
 14.8868  25.0376
 14.9673  24.9791
 15.0478  24.9784
 15.1283  25.3855
 15.2088  28.2779
 15.2892  24.9646
 15.3698  24.7364
 15.4503  24.5869
 15.5308  24.674
 15.6113  24.6856
 15.6918  24.827
 15.7723  24.6419
 15.8528  24.6991
 15.9332  24.7022
 16.0138  24.7028
 16.0943  24.7199
 16.1748  24.9306
 16.2553  26.0784
 16.3358  25.0727
 16.4163  24.9188
 16.4967  24.7403
 16.5773  24.7689
 16.6578  24.7084
 16.7383  24.6186
 16.8188  24.5717
 16.8992  24.5372
 16.9798  24.4094
 17.0603  24.2367
 17.1408  24.3324
 17.2213  24.2761
 17.3017  24.2689
 17.3823  24.0622
 17.4628  24.1498
 17.5433  24.221
 17.6238  23.9875
 17.7042  24.1011
 17.7847  24.0207
 17.8653  23.94
 17.9458  24.2842
 18.0263  25.3759
 18.1068  28.5869
 18.1872  25.0727
 18.2678  24.0181
 18.3483  23.8592
 18.4288  23.8546
 18.5093  23.7684
 18.5897  23.7329
 18.6703  23.5679
 18.7508  23.7275
 18.8313  23.5644
 18.9118  23.6305
 18.9922  23.6521
 19.0727  23.7131
 19.1533  23.7716
 19.2338  23.6487
 19.3143  23.7184
 19.3948  23.8254
 19.4752  23.7856
 19.5558  24.0207
 19.6363  24.5517
 19.7168  29.6292
 19.7973  26.1361
 19.8777  27.5634
 19.9582  24.2453
 20.0388  23.9148
 20.1193  23.8081
 20.1998  23.9323
 20.2803  23.8463
 20.3607  23.9883
 20.4413  23.8803
 20.5218  23.8554
 20.6023  24.0937
 20.6828  24.3932
 20.7632  26.6984
 20.8438  24.5366
 20.9243  24.1152
 21.0048  24.2076
 21.0853  24.1552
 21.1658  24.0335
 21.2462  23.9355
 21.3268  23.9125
 21.4073  23.9675
 21.4878  24.2321
 21.5683  24.1197
 21.6487  24.1831
 21.7293  24.2742
 21.8098  24.3027
 21.8903  24.31
 21.9708  24.4122
 22.0512  24.4126
 22.1318  24.7796
 22.2123  24.3715
 22.2928  24.484
 22.3733  24.6255
 22.4538  24.7439
 22.5343  24.8717
 22.6148  24.9489
 22.6953  25.2719
 22.7758  25.3438
 22.8563  25.7975
 22.9367  26.1477
 22.9943  26.5264