Folder: scimap-tests/test-data-xrd/xrd-map-34-ID-E (part 23)

File: Data_0094.chi
F:\20151113_APS_34IDE\\Brian\Particle1\OCV\Data_0094.tif
2-Theta Angle (Degrees)
Intensity
       2000
 0.07475  0.0000000E+00
 0.15525  0.0000000E+00
 0.23575  0.0000000E+00
 0.31625  0.0000000E+00
 0.39675  0.0000000E+00
 0.47725  0.0000000E+00
 0.55775  0.0000000E+00
 0.63825  0.0000000E+00
 0.71875  0.0000000E+00
 0.79925  0.0000000E+00
 0.87975  0.0000000E+00
 0.96025  0.0000000E+00
 1.04075  0.0000000E+00
 1.12125  0.0000000E+00
 1.20175  0.0000000E+00
 1.28225  0.0000000E+00
 1.36275  0.0000000E+00
 1.44325  0.0000000E+00
 1.52375  0.0000000E+00
 1.60425  0.0000000E+00
 1.68475  0.0000000E+00
 1.76525  0.0000000E+00
 1.84575  0.0000000E+00
 1.92625  0.0000000E+00
 2.00675  0.0000000E+00
 2.08725  0.0000000E+00
 2.16775  0.0000000E+00
 2.24825  0.0000000E+00
 2.32875  0.0000000E+00
 2.40925  0.0000000E+00
 2.48975  0.0000000E+00
 2.57025  0.0000000E+00
 2.65075  0.0000000E+00
 2.73125  0.0000000E+00
 2.81175  0.0000000E+00
 2.89225  35.0219
 2.97275  36.7871
 3.05325  34.6955
 3.13375  34.8026
 3.21425  35.5146
 3.29475  35.8003
 3.37525  34.3475
 3.45575  33.8109
 3.53625  33.8222
 3.61675  33.3664
 3.69725  33.6448
 3.77775  33.2084
 3.85825  32.4499
 3.93875  33.3194
 4.01925  32.7668
 4.09975  32.4005
 4.18025  32.5141
 4.26075  32.5807
 4.34125  32.2956
 4.42175  32.3769
 4.50225  32.6312
 4.58275  32.9311
 4.66325  32.9835
 4.74375  32.455
 4.82425  32.5517
 4.90475  32.8922
 4.98525  33.2185
 5.06575  33.6146
 5.14625  33.9498
 5.22675  33.7957
 5.30725  34.4167
 5.38775  34.5597
 5.46825  34.6634
 5.54875  34.9464
 5.62925  35.287
 5.70975  35.6641
 5.79025  35.9648
 5.87075  36.6004
 5.95125  52.0902
 6.03175  43.2008
 6.11225  37.696
 6.19275  37.4656
 6.27325  38.2047
 6.35375  38.1727
 6.43425  38.9064
 6.51475  39.4345
 6.59525  39.7215
 6.67575  40.1355
 6.75625  40.9959
 6.83675  41.5635
 6.91725  41.906
 6.99775  42.4791
 7.07825  42.7168
 7.15875  43.3482
 7.23925  43.728
 7.31975  43.8816
 7.40025  44.1961
 7.48075  44.4637
 7.56125  44.3232
 7.64175  44.7951
 7.72225  44.65
 7.80275  44.6097
 7.88325  44.0745
 7.96375  43.8758
 8.04425  43.4679
 8.12475  43.0245
 8.20525  42.2576
 8.28575  41.3176
 8.36625  40.0762
 8.44675  39.0632
 8.52725  37.7672
 8.60775  36.5254
 8.68825  35.1477
 8.76875  33.8271
 8.84925  32.8272
 8.92975  31.863
 9.01025  30.6661
 9.09075  29.5257
 9.17125  28.877
 9.25175  28.2432
 9.33225  27.4292
 9.41275  26.9365
 9.49325  26.3682
 9.57375  26.0024
 9.65425  25.6547
 9.73475  25.3724
 9.81525  25.2173
 9.89575  24.8245
 9.97625  24.3483
 10.0567  24.2984
 10.1373  23.9587
 10.2178  23.857
 10.2982  23.695
 10.3788  23.5177
 10.4593  23.3572
 10.5397  23.2026
 10.6203  23.2454
 10.7007  22.9932
 10.7813  22.9941
 10.8618  22.9974
 10.9422  22.8166
 11.0228  22.619
 11.1033  22.7713
 11.1837  22.7224
 11.2643  22.4058
 11.3447  22.6567
 11.4253  22.9663
 11.5058  23.6062
 11.5862  32.0705
 11.6668  24.0149
 11.7473  22.6788
 11.8277  22.6339
 11.9083  22.7906
 11.9887  25.2964
 12.0693  25.4645
 12.1498  23.7494
 12.2302  22.7058
 12.3108  22.6818
 12.3913  22.674
 12.4718  22.8951
 12.5523  23.0509
 12.6328  23.0745
 12.7133  23.1163
 12.7938  23.1736
 12.8742  23.5502
 12.9548  23.8909
 13.0353  24.2358
 13.1158  25.0104
 13.1963  25.8002
 13.2768  26.7834
 13.3573  27.7728
 13.4378  28.8194
 13.5183  29.5476
 13.5988  30.0644
 13.6793  30.3253
 13.7598  30.3767
 13.8403  31.5181
 13.9208  59.9372
 14.0013  49.0608
 14.0818  29.0568
 14.1623  27.9288
 14.2428  27.1106
 14.3233  26.5822
 14.4038  26.2075
 14.4843  26.0127
 14.5648  25.8669
 14.6453  25.5615
 14.7258  25.3318
 14.8063  25.2371
 14.8868  25.1827
 14.9673  25.0598
 15.0478  25.1771
 15.1283  26.0435
 15.2088  28.6939
 15.2892  25.1967
 15.3698  24.7555
 15.4503  24.6814
 15.5308  24.7264
 15.6113  24.739
 15.6918  24.709
 15.7723  24.6697
 15.8528  24.7244
 15.9332  24.7784
 16.0138  24.7592
 16.0943  24.7725
 16.1748  24.841
 16.2553  26.0189
 16.3358  25.06
 16.4163  24.8187
 16.4967  24.7697
 16.5773  24.7321
 16.6578  24.6131
 16.7383  24.7432
 16.8188  24.5604
 16.8992  24.6433
 16.9798  24.4064
 17.0603  24.304
 17.1408  24.3674
 17.2213  24.3188
 17.3017  24.0777
 17.3823  24.1733
 17.4628  24.1107
 17.5433  23.9935
 17.6238  23.955
 17.7042  23.9069
 17.7847  23.9581
 17.8653  23.9069
 17.9458  24.0519
 18.0263  24.626
 18.1068  25.8985
 18.1872  24.2201
 18.2678  23.7527
 18.3483  23.8149
 18.4288  23.9
 18.5093  23.7324
 18.5897  23.6365
 18.6703  23.6194
 18.7508  23.6825
 18.8313  23.6546
 18.9118  23.6012
 18.9922  23.5492
 19.0727  23.7786
 19.1533  23.7321
 19.2338  23.678
 19.3143  23.6991
 19.3948  24.0183
 19.4752  23.7522
 19.5558  23.9692
 19.6363  24.7046
 19.7168  30.0983
 19.7973  26.2186
 19.8777  28.1384
 19.9582  24.34
 20.0388  24.0436
 20.1193  23.8278
 20.1998  23.9062
 20.2803  23.9432
 20.3607  24.0248
 20.4413  23.8563
 20.5218  23.9061
 20.6023  24.0948
 20.6828  24.4452
 20.7632  27.5354
 20.8438  24.6696
 20.9243  24.1652
 21.0048  24.0453
 21.0853  23.9857
 21.1658  23.9517
 21.2462  23.9967
 21.3268  24.0434
 21.4073  24.0776
 21.4878  24.1651
 21.5683  24.0505
 21.6487  24.1854
 21.7293  24.2987
 21.8098  24.2615
 21.8903  24.4263
 21.9708  24.3319
 22.0512  24.3118
 22.1318  24.5279
 22.2123  24.5722
 22.2928  24.65
 22.3733  24.8058
 22.4538  24.7175
 22.5343  24.7492
 22.6148  24.9404
 22.6953  25.1894
 22.7758  25.3049
 22.8563  25.6758
 22.9367  26.2511
 22.9943  26.9114

File: Data_0095.chi
F:\20151113_APS_34IDE\\Brian\Particle1\OCV\Data_0095.tif
2-Theta Angle (Degrees)
Intensity
       2000
 0.07475  0.0000000E+00
 0.15525  0.0000000E+00
 0.23575  0.0000000E+00
 0.31625  0.0000000E+00
 0.39675  0.0000000E+00
 0.47725  0.0000000E+00
 0.55775  0.0000000E+00
 0.63825  0.0000000E+00
 0.71875  0.0000000E+00
 0.79925  0.0000000E+00
 0.87975  0.0000000E+00
 0.96025  0.0000000E+00
 1.04075  0.0000000E+00
 1.12125  0.0000000E+00
 1.20175  0.0000000E+00
 1.28225  0.0000000E+00
 1.36275  0.0000000E+00
 1.44325  0.0000000E+00
 1.52375  0.0000000E+00
 1.60425  0.0000000E+00
 1.68475  0.0000000E+00
 1.76525  0.0000000E+00
 1.84575  0.0000000E+00
 1.92625  0.0000000E+00
 2.00675  0.0000000E+00
 2.08725  0.0000000E+00
 2.16775  0.0000000E+00
 2.24825  0.0000000E+00
 2.32875  0.0000000E+00
 2.40925  0.0000000E+00
 2.48975  0.0000000E+00
 2.57025  0.0000000E+00
 2.65075  0.0000000E+00
 2.73125  0.0000000E+00
 2.81175  0.0000000E+00
 2.89225  36.8826
 2.97275  36.6927
 3.05325  35.8024
 3.13375  36.3495
 3.21425  34.8874
 3.29475  33.7002
 3.37525  35.1009
 3.45575  35.1665
 3.53625  33.8051
 3.61675  33.4643
 3.69725  32.6874
 3.77775  33.352
 3.85825  33.1178
 3.93875  32.256
 4.01925  32.6964
 4.09975  32.3825
 4.18025  32.2585
 4.26075  32.114
 4.34125  32.0844
 4.42175  32.5329
 4.50225  32.8673
 4.58275  32.6727
 4.66325  32.9569
 4.74375  32.9423
 4.82425  32.5357
 4.90475  32.8686
 4.98525  33.3352
 5.06575  33.2734
 5.14625  33.7196
 5.22675  34.2433
 5.30725  34.0517
 5.38775  34.4974
 5.46825  34.7041
 5.54875  35.0017
 5.62925  35.328
 5.70975  35.7826
 5.79025  35.954
 5.87075  36.3147
 5.95125  43.7762
 6.03175  44.3719
 6.11225  37.2526
 6.19275  37.1228
 6.27325  37.6047
 6.35375  38.2098
 6.43425  38.8119
 6.51475  39.2448
 6.59525  39.7457
 6.67575  40.2914
 6.75625  40.8146
 6.83675  41.7869
 6.91725  41.9733
 6.99775  42.6129
 7.07825  43.2392
 7.15875  43.3392
 7.23925  43.8133
 7.31975  43.9453
 7.40025  44.0401
 7.48075  44.4937
 7.56125  44.2375
 7.64175  44.613
 7.72225  44.2714
 7.80275  44.4824
 7.88325  44.0592
 7.96375  43.8151
 8.04425  43.5932
 8.12475  42.6117
 8.20525  41.8231
 8.28575  40.7218
 8.36625  39.8593
 8.44675  38.9358
 8.52725  37.7821
 8.60775  36.514
 8.68825  35.1758
 8.76875  33.8185
 8.84925  32.9267
 8.92975  31.7192
 9.01025  30.6559
 9.09075  29.6275
 9.17125  28.9365
 9.25175  28.0455
 9.33225  27.3851
 9.41275  26.7602
 9.49325  26.4633
 9.57375  26.0092
 9.65425  25.6564
 9.73475  25.2115
 9.81525  25.0622
 9.89575  24.7713
 9.97625  25.1472
 10.0567  24.164
 10.1373  24.0542
 10.2178  23.8717
 10.2982  23.6152
 10.3788  23.5238
 10.4593  23.2492
 10.5397  23.331
 10.6203  23.0463
 10.7007  22.9922
 10.7813  22.9004
 10.8618  22.6908
 10.9422  22.797
 11.0228  22.6249
 11.1033  22.5024
 11.1837  22.5474
 11.2643  22.5048
 11.3447  22.4946
 11.4253  22.7307
 11.5058  22.8698
 11.5862  26.8968
 11.6668  23.4395
 11.7473  22.5102
 11.8277  22.48
 11.9083  22.4682
 11.9887  23.395
 12.0693  24.1504
 12.1498  23.3383
 12.2302  22.3886
 12.3108  22.4803
 12.3913  22.584
 12.4718  22.7624
 12.5523  22.7313
 12.6328  22.8631
 12.7133  22.9103
 12.7938  23.014
 12.8742  23.4087
 12.9548  23.934
 13.0353  24.2603
 13.1158  24.8835
 13.1963  26.0423
 13.2768  26.6586
 13.3573  27.7356
 13.4378  28.5021
 13.5183  29.4617
 13.5988  30.0049
 13.6793  29.9065
 13.7598  29.9689
 13.8403  30.3787
 13.9208  46.0573
 14.0013  48.6689
 14.0818  28.9215
 14.1623  27.6381
 14.2428  26.9568
 14.3233  26.3878
 14.4038  26.2057
 14.4843  25.7337
 14.5648  25.722
 14.6453  25.4568
 14.7258  25.3061
 14.8063  24.9632
 14.8868  25.023
 14.9673  24.8552
 15.0478  24.9561
 15.1283  25.253
 15.2088  27.4394
 15.2892  25.0105
 15.3698  24.7575
 15.4503  24.7103
 15.5308  24.4868
 15.6113  24.6271
 15.6918  24.7977
 15.7723  24.6057
 15.8528  24.5272
 15.9332  24.6841
 16.0138  24.6515
 16.0943  24.8365
 16.1748  24.9172
 16.2553  25.6072
 16.3358  25.0302
 16.4163  24.8004
 16.4967  24.8026
 16.5773  24.6674
 16.6578  24.5694
 16.7383  24.6162
 16.8188  24.5378
 16.8992  24.394
 16.9798  24.1785
 17.0603  24.1442
 17.1408  24.3102
 17.2213  24.1943
 17.3017  24.126
 17.3823  24.1402
 17.4628  23.9777
 17.5433  23.9298
 17.6238  23.93
 17.7042  23.9193
 17.7847  24.0234
 17.8653  24.0138
 17.9458  24.0548
 18.0263  24.6709
 18.1068  26.4654
 18.1872  24.1577
 18.2678  23.7144
 18.3483  23.7491
 18.4288  23.7146
 18.5093  23.6756
 18.5897  23.5616
 18.6703  23.5262
 18.7508  23.5624
 18.8313  23.5823
 18.9118  23.5733
 18.9922  23.5113
 19.0727  23.6318
 19.1533  23.6111
 19.2338  23.5945
 19.3143  23.6759
 19.3948  23.6969
 19.4752  23.9085
 19.5558  23.9205
 19.6363  24.458
 19.7168  29.782
 19.7973  26.1009
 19.8777  28.9722
 19.9582  24.3598
 20.0388  24.0229
 20.1193  23.9178
 20.1998  23.7783
 20.2803  23.8973
 20.3607  23.7341
 20.4413  23.8309
 20.5218  23.8563
 20.6023  24.034
 20.6828  24.7211
 20.7632  27.4113
 20.8438  24.5179
 20.9243  24.0421
 21.0048  23.9378
 21.0853  24.0156
 21.1658  23.9278
 21.2462  23.8188
 21.3268  23.9221
 21.4073  23.9467
 21.4878  24.3391
 21.5683  24.0692
 21.6487  24.0706
 21.7293  24.1259
 21.8098  24.1574
 21.8903  24.2172
 21.9708  24.2577
 22.0512  24.2756
 22.1318  24.2974
 22.2123  24.3693
 22.2928  24.5209
 22.3733  24.6675
 22.4538  24.5935
 22.5343  24.7686
 22.6148  24.8913
 22.6953  25.2002
 22.7758  25.3099
 22.8563  25.6187
 22.9367  25.9936
 22.9943  26.463

File: Data_0096.chi
F:\20151113_APS_34IDE\\Brian\Particle1\OCV\Data_0096.tif
2-Theta Angle (Degrees)
Intensity
       2000
 0.07475  0.0000000E+00
 0.15525  0.0000000E+00
 0.23575  0.0000000E+00
 0.31625  0.0000000E+00
 0.39675  0.0000000E+00
 0.47725  0.0000000E+00
 0.55775  0.0000000E+00
 0.63825  0.0000000E+00
 0.71875  0.0000000E+00
 0.79925  0.0000000E+00
 0.87975  0.0000000E+00
 0.96025  0.0000000E+00
 1.04075  0.0000000E+00
 1.12125  0.0000000E+00
 1.20175  0.0000000E+00
 1.28225  0.0000000E+00
 1.36275  0.0000000E+00
 1.44325  0.0000000E+00
 1.52375  0.0000000E+00
 1.60425  0.0000000E+00
 1.68475  0.0000000E+00
 1.76525  0.0000000E+00
 1.84575  0.0000000E+00
 1.92625  0.0000000E+00
 2.00675  0.0000000E+00
 2.08725  0.0000000E+00
 2.16775  0.0000000E+00
 2.24825  0.0000000E+00
 2.32875  0.0000000E+00
 2.40925  0.0000000E+00
 2.48975  0.0000000E+00
 2.57025  0.0000000E+00
 2.65075  0.0000000E+00
 2.73125  0.0000000E+00
 2.81175  0.0000000E+00
 2.89225  35.0285
 2.97275  35.3433
 3.05325  35.9821
 3.13375  34.9509
 3.21425  34.8435
 3.29475  34.5928
 3.37525  35.0165
 3.45575  34.2275
 3.53625  34.4096
 3.61675  33.5925
 3.69725  33.6632
 3.77775  33.5232
 3.85825  33.0071
 3.93875  33.248
 4.01925  33.0103
 4.09975  32.9631
 4.18025  32.6568
 4.26075  32.0932
 4.34125  32.3103
 4.42175  32.4587
 4.50225  32.9872
 4.58275  33.1235
 4.66325  33.0172
 4.74375  32.9634
 4.82425  32.8358
 4.90475  33.3901
 4.98525  33.2399
 5.06575  33.5859
 5.14625  33.8911
 5.22675  34.4055
 5.30725  34.53
 5.38775  34.7426
 5.46825  34.9223
 5.54875  35.1747
 5.62925  35.6722
 5.70975  36.116
 5.79025  36.5748
 5.87075  36.7125
 5.95125  45.4408
 6.03175  48.3637
 6.11225  37.6632
 6.19275  37.6455
 6.27325  37.9712
 6.35375  38.4722
 6.43425  39.0354
 6.51475  39.6177
 6.59525  40.4374
 6.67575  40.6592
 6.75625  41.1884
 6.83675  41.7751
 6.91725  42.2093
 6.99775  42.8892
 7.07825  42.9484
 7.15875  43.6491
 7.23925  44.1456
 7.31975  44.1963
 7.40025  44.3695
 7.48075  44.8361
 7.56125  44.8637
 7.64175  44.7923
 7.72225  44.6086
 7.80275  44.8115
 7.88325  44.3337
 7.96375  44.013
 8.04425  43.6236
 8.12475  42.9793
 8.20525  42.3192
 8.28575  41.2292
 8.36625  40.452
 8.44675  39.306
 8.52725  37.9924
 8.60775  36.6756
 8.68825  35.4083
 8.76875  34.1397
 8.84925  33.2078
 8.92975  32.0103
 9.01025  30.9638
 9.09075  30.0055
 9.17125  29.1359
 9.25175  28.4309
 9.33225  27.6962
 9.41275  27.1611
 9.49325  26.782
 9.57375  26.1136
 9.65425  25.7399
 9.73475  25.3124
 9.81525  24.9922
 9.89575  24.7522
 9.97625  24.3776
 10.0567  24.4057
 10.1373  24.1397
 10.2178  23.8718
 10.2982  23.5191
 10.3788  23.4578
 10.4593  23.458
 10.5397  23.0896
 10.6203  22.9943
 10.7007  23.0249
 10.7813  22.8703
 10.8618  22.9725
 10.9422  22.7791
 11.0228  22.7051
 11.1033  22.6907
 11.1837  22.7106
 11.2643  22.6823
 11.3447  22.8214
 11.4253  23.1295
 11.5058  23.9413
 11.5862  33.6584
 11.6668  24.4764
 11.7473  22.8299
 11.8277  22.6849
 11.9083  22.8461
 11.9887  23.1015
 12.0693  23.9046
 12.1498  24.1105
 12.2302  22.7206
 12.3108  22.8395
 12.3913  22.5993
 12.4718  22.7715
 12.5523  22.8206
 12.6328  22.9586
 12.7133  23.0099
 12.7938  23.3029
 12.8742  23.482
 12.9548  23.9118
 13.0353  24.2849
 13.1158  25.0548
 13.1963  25.7366
 13.2768  26.8041
 13.3573  27.928
 13.4378  28.8089
 13.5183  29.6946
 13.5988  30.0753
 13.6793  30.0687
 13.7598  29.9095
 13.8403  30.3563
 13.9208  39.3039
 14.0013  48.3111
 14.0818  28.9355
 14.1623  27.6395
 14.2428  26.9342
 14.3233  26.3584
 14.4038  26.2146
 14.4843  25.7807
 14.5648  25.7051
 14.6453  25.5118
 14.7258  25.5032
 14.8063  25.2227
 14.8868  25.124
 14.9673  24.9797
 15.0478  25.0882
 15.1283  25.4561
 15.2088  28.5894
 15.2892  25.2626
 15.3698  24.7927
 15.4503  24.8787
 15.5308  24.6522
 15.6113  24.5936
 15.6918  24.5929
 15.7723  24.6545
 15.8528  24.713
 15.9332  24.8596
 16.0138  24.7422
 16.0943  24.7831
 16.1748  25.0238
 16.2553  25.7532
 16.3358  25.1426
 16.4163  24.896
 16.4967  24.8266
 16.5773  24.7815
 16.6578  24.6615
 16.7383  24.6308
 16.8188  24.5989
 16.8992  24.5115
 16.9798  24.4853
 17.0603  24.3554
 17.1408  24.2657
 17.2213  24.3294
 17.3017  24.1961
 17.3823  24.2777
 17.4628  24.055
 17.5433  24.0481
 17.6238  23.9443
 17.7042  23.9512
 17.7847  23.9776
 17.8653  23.8908
 17.9458  23.9108
 18.0263  24.5681
 18.1068  25.2158
 18.1872  24.111
 18.2678  23.8342
 18.3483  23.7947
 18.4288  23.5858
 18.5093  23.6765
 18.5897  23.6536
 18.6703  23.6587
 18.7508  23.6344
 18.8313  23.6696
 18.9118  23.6422
 18.9922  23.6065
 19.0727  23.7584
 19.1533  23.6238
 19.2338  23.7115
 19.3143  23.9508
 19.3948  24.0765
 19.4752  23.8428
 19.5558  23.8601
 19.6363  24.4908
 19.7168  27.908
 19.7973  26.1488
 19.8777  28.1852
 19.9582  24.281
 20.0388  23.9533
 20.1193  24.1808
 20.1998  23.7253
 20.2803  23.7428
 20.3607  23.8714
 20.4413  23.7619
 20.5218  23.8193
 20.6023  23.9312
 20.6828  24.3703
 20.7632  26.2301
 20.8438  24.3337
 20.9243  24.1167
 21.0048  24.0523
 21.0853  24.0435
 21.1658  23.9191
 21.2462  23.9414
 21.3268  23.9361
 21.4073  23.9451
 21.4878  24.0881
 21.5683  24.1251
 21.6487  24.2169
 21.7293  24.1989
 21.8098  24.2428
 21.8903  24.157
 21.9708  24.2296
 22.0512  24.3792
 22.1318  24.43
 22.2123  24.2874
 22.2928  24.5812
 22.3733  24.6987
 22.4538  24.7058
 22.5343  24.9537
 22.6148  25.0067
 22.6953  25.2226
 22.7758  25.3595
 22.8563  25.6471
 22.9367  26.1081
 22.9943  26.8489

File: Data_0097.chi
F:\20151113_APS_34IDE\\Brian\Particle1\OCV\Data_0097.tif
2-Theta Angle (Degrees)
Intensity
       2000
 0.07475  0.0000000E+00
 0.15525  0.0000000E+00
 0.23575  0.0000000E+00
 0.31625  0.0000000E+00
 0.39675  0.0000000E+00
 0.47725  0.0000000E+00
 0.55775  0.0000000E+00
 0.63825  0.0000000E+00
 0.71875  0.0000000E+00
 0.79925  0.0000000E+00
 0.87975  0.0000000E+00
 0.96025  0.0000000E+00
 1.04075  0.0000000E+00
 1.12125  0.0000000E+00
 1.20175  0.0000000E+00
 1.28225  0.0000000E+00
 1.36275  0.0000000E+00
 1.44325  0.0000000E+00
 1.52375  0.0000000E+00
 1.60425  0.0000000E+00
 1.68475  0.0000000E+00
 1.76525  0.0000000E+00
 1.84575  0.0000000E+00
 1.92625  0.0000000E+00
 2.00675  0.0000000E+00
 2.08725  0.0000000E+00
 2.16775  0.0000000E+00
 2.24825  0.0000000E+00
 2.32875  0.0000000E+00
 2.40925  0.0000000E+00
 2.48975  0.0000000E+00
 2.57025  0.0000000E+00
 2.65075  0.0000000E+00
 2.73125  0.0000000E+00
 2.81175  0.0000000E+00
 2.89225  33.9588
 2.97275  36.6655
 3.05325  36.5005
 3.13375  34.9144
 3.21425  36.2279
 3.29475  35.678
 3.37525  34.5983
 3.45575  34.586
 3.53625  34.0786
 3.61675  34.2517
 3.69725  34.0456
 3.77775  33.8278
 3.85825  33.7063
 3.93875  33.2311
 4.01925  33.1049
 4.09975  32.6659
 4.18025  32.3758
 4.26075  32.5274
 4.34125  32.7391
 4.42175  32.4366
 4.50225  33.0257
 4.58275  33.1331
 4.66325  33.3575
 4.74375  33.0205
 4.82425  33.052
 4.90475  32.9823
 4.98525  33.4181
 5.06575  33.9634
 5.14625  33.9159
 5.22675  34.5991
 5.30725  34.7502
 5.38775  35.0748
 5.46825  34.8963
 5.54875  35.7222
 5.62925  35.5429
 5.70975  35.5514
 5.79025  36.153
 5.87075  36.2473
 5.95125  39.3014
 6.03175  38.6073
 6.11225  37.0849
 6.19275  37.281
 6.27325  37.7713
 6.35375  38.4201
 6.43425  38.9238
 6.51475  39.5052
 6.59525  39.8598
 6.67575  40.5676
 6.75625  41.1379
 6.83675  41.9069
 6.91725  42.4543
 6.99775  43.0231
 7.07825  43.1912
 7.15875  43.7302
 7.23925  44.0711
 7.31975  44.3022
 7.40025  44.8502
 7.48075  44.3753
 7.56125  44.9422
 7.64175  44.8406
 7.72225  44.8515
 7.80275  44.361
 7.88325  44.4347
 7.96375  44.1916
 8.04425  43.7015
 8.12475  43.2314
 8.20525  42.3626
 8.28575  41.1203
 8.36625  40.3705
 8.44675  39.0272
 8.52725  38.1285
 8.60775  36.4658
 8.68825  35.4991
 8.76875  33.9614
 8.84925  32.896
 8.92975  31.9155
 9.01025  30.7634
 9.09075  29.8194
 9.17125  29.0259
 9.25175  28.0358
 9.33225  27.5704
 9.41275  26.9391
 9.49325  26.4812
 9.57375  26.0634
 9.65425  25.5896
 9.73475  25.1536
 9.81525  25.0469
 9.89575  24.5827
 9.97625  24.289
 10.0567  24.0662
 10.1373  23.7974
 10.2178  23.8044
 10.2982  23.6882
 10.3788  23.3653
 10.4593  23.1808
 10.5397  23.21
 10.6203  22.8441
 10.7007  22.8285
 10.7813  22.7611
 10.8618  22.7083
 10.9422  22.6482
 11.0228  22.4434
 11.1033  22.6039
 11.1837  22.4682
 11.2643  22.2111
 11.3447  22.4125
 11.4253  22.6231
 11.5058  22.8393
 11.5862  26.7933
 11.6668  22.9583
 11.7473  22.457
 11.8277  22.4158
 11.9083  22.3475
 11.9887  22.6441
 12.0693  22.8981
 12.1498  23.1412
 12.2302  22.4243
 12.3108  22.4285
 12.3913  22.4721
 12.4718  22.6075
 12.5523  22.653
 12.6328  22.7597
 12.7133  22.9542
 12.7938  23.0861
 12.8742  23.3661
 12.9548  23.644
 13.0353  24.0864
 13.1158  24.9571
 13.1963  25.504
 13.2768  26.6117
 13.3573  27.6813
 13.4378  28.5009
 13.5183  29.3205
 13.5988  30.0209
 13.6793  29.7986
 13.7598  29.9332
 13.8403  30.234
 13.9208  41.8255
 14.0013  39.3049
 14.0818  28.3272
 14.1623  27.3405
 14.2428  26.7122
 14.3233  26.3108
 14.4038  26.0465
 14.4843  25.6784
 14.5648  25.6472
 14.6453  25.1878
 14.7258  25.1342
 14.8063  25.0206
 14.8868  24.9157
 14.9673  24.8335
 15.0478  24.8742
 15.1283  24.8736
 15.2088  25.4505
 15.2892  24.6613
 15.3698  24.5986
 15.4503  24.442
 15.5308  24.5316
 15.6113  24.4397
 15.6918  24.5074
 15.7723  24.7079
 15.8528  24.5073
 15.9332  24.5495
 16.0138  24.6813
 16.0943  24.6676
 16.1748  24.8222
 16.2553  25.2976
 16.3358  24.8694
 16.4163  24.6735
 16.4967  24.6839
 16.5773  24.5076
 16.6578  24.5279
 16.7383  24.4343
 16.8188  24.1612
 16.8992  24.2077
 16.9798  24.3057
 17.0603  23.9558
 17.1408  24.0667
 17.2213  24.1143
 17.3017  23.9327
 17.3823  23.862
 17.4628  23.9742
 17.5433  23.9149
 17.6238  23.8488
 17.7042  23.6656
 17.7847  23.733
 17.8653  23.6384
 17.9458  23.6749
 18.0263  24.0543
 18.1068  24.4154
 18.1872  23.8139
 18.2678  23.5346
 18.3483  23.5509
 18.4288  23.3773
 18.5093  23.53
 18.5897  23.5075
 18.6703  23.3413
 18.7508  23.3123
 18.8313  23.2087
 18.9118  23.3448
 18.9922  23.3046
 19.0727  23.4466
 19.1533  23.3179
 19.2338  23.3839
 19.3143  23.4887
 19.3948  23.5369
 19.4752  23.5994
 19.5558  23.6519
 19.6363  23.8155
 19.7168  25.2366
 19.7973  24.7642
 19.8777  25.454
 19.9582  23.7545
 20.0388  23.6021
 20.1193  23.6498
 20.1998  23.4646
 20.2803  23.4679
 20.3607  23.5436
 20.4413  23.5741
 20.5218  23.611
 20.6023  23.827
 20.6828  23.9246
 20.7632  25.191
 20.8438  23.935
 20.9243  23.8344
 21.0048  23.729
 21.0853  23.6676
 21.1658  23.6169
 21.2462  23.7617
 21.3268  23.7704
 21.4073  23.7795
 21.4878  23.8788
 21.5683  23.8116
 21.6487  23.9481
 21.7293  24.0388
 21.8098  23.9176
 21.8903  24.1155
 21.9708  24.1118
 22.0512  24.0455
 22.1318  24.0721
 22.2123  24.2057
 22.2928  24.189
 22.3733  24.4488
 22.4538  24.5588
 22.5343  24.6014
 22.6148  24.6506
 22.6953  25.1214
 22.7758  25.1003
 22.8563  25.3428
 22.9367  25.8123
 22.9943  26.3078