Folder: scimap-tests/test-data-xrd/xrd-map-34-ID-E (part 34)

File: Data_0140.chi
F:\20151113_APS_34IDE\\Brian\Particle1\OCV\Data_0140.tif
2-Theta Angle (Degrees)
Intensity
       2000
 0.07475  0.0000000E+00
 0.15525  0.0000000E+00
 0.23575  0.0000000E+00
 0.31625  0.0000000E+00
 0.39675  0.0000000E+00
 0.47725  0.0000000E+00
 0.55775  0.0000000E+00
 0.63825  0.0000000E+00
 0.71875  0.0000000E+00
 0.79925  0.0000000E+00
 0.87975  0.0000000E+00
 0.96025  0.0000000E+00
 1.04075  0.0000000E+00
 1.12125  0.0000000E+00
 1.20175  0.0000000E+00
 1.28225  0.0000000E+00
 1.36275  0.0000000E+00
 1.44325  0.0000000E+00
 1.52375  0.0000000E+00
 1.60425  0.0000000E+00
 1.68475  0.0000000E+00
 1.76525  0.0000000E+00
 1.84575  0.0000000E+00
 1.92625  0.0000000E+00
 2.00675  0.0000000E+00
 2.08725  0.0000000E+00
 2.16775  0.0000000E+00
 2.24825  0.0000000E+00
 2.32875  0.0000000E+00
 2.40925  0.0000000E+00
 2.48975  0.0000000E+00
 2.57025  0.0000000E+00
 2.65075  0.0000000E+00
 2.73125  0.0000000E+00
 2.81175  0.0000000E+00
 2.89225  35.4104
 2.97275  36.2699
 3.05325  35.3984
 3.13375  35.3063
 3.21425  35.3546
 3.29475  34.532
 3.37525  34.0703
 3.45575  33.6125
 3.53625  33.7114
 3.61675  32.9968
 3.69725  33.1654
 3.77775  32.9457
 3.85825  31.9735
 3.93875  31.4953
 4.01925  32.4391
 4.09975  32.1761
 4.18025  32.0448
 4.26075  32.218
 4.34125  31.6591
 4.42175  32.7151
 4.50225  32.1989
 4.58275  32.4477
 4.66325  33.0317
 4.74375  32.0196
 4.82425  32.0629
 4.90475  32.3843
 4.98525  32.8411
 5.06575  32.9965
 5.14625  33.2355
 5.22675  33.7233
 5.30725  33.9244
 5.38775  34.3743
 5.46825  34.1114
 5.54875  34.4451
 5.62925  34.9066
 5.70975  35.0917
 5.79025  35.5185
 5.87075  35.7952
 5.95125  36.7501
 6.03175  37.0018
 6.11225  36.2956
 6.19275  36.517
 6.27325  37.5558
 6.35375  37.7929
 6.43425  38.3818
 6.51475  39.0981
 6.59525  39.5478
 6.67575  39.9268
 6.75625  40.6553
 6.83675  41.2403
 6.91725  41.6683
 6.99775  42.1444
 7.07825  42.5866
 7.15875  42.9025
 7.23925  43.6169
 7.31975  43.4385
 7.40025  43.8162
 7.48075  44.0904
 7.56125  44.0697
 7.64175  43.9695
 7.72225  43.7897
 7.80275  43.9915
 7.88325  43.8446
 7.96375  43.4665
 8.04425  43.3389
 8.12475  42.5122
 8.20525  41.9631
 8.28575  40.8683
 8.36625  39.9904
 8.44675  38.5487
 8.52725  37.3624
 8.60775  36.1163
 8.68825  35.2671
 8.76875  33.9636
 8.84925  32.7535
 8.92975  31.5015
 9.01025  30.4143
 9.09075  29.5576
 9.17125  28.6116
 9.25175  27.9621
 9.33225  27.1433
 9.41275  26.9287
 9.49325  26.2105
 9.57375  25.5831
 9.65425  25.1842
 9.73475  24.9278
 9.81525  24.7363
 9.89575  24.2678
 9.97625  24.1069
 10.0567  23.923
 10.1373  23.6926
 10.2178  23.6763
 10.2982  23.1888
 10.3788  23.1888
 10.4593  23.0493
 10.5397  22.7272
 10.6203  22.607
 10.7007  22.6406
 10.7813  22.4576
 10.8618  22.4013
 10.9422  22.3243
 11.0228  22.3987
 11.1033  22.1778
 11.1837  22.1906
 11.2643  22.0031
 11.3447  22.0048
 11.4253  22.2276
 11.5058  22.019
 11.5862  22.7989
 11.6668  22.0769
 11.7473  21.9755
 11.8277  22.0763
 11.9083  22.1142
 11.9887  22.3414
 12.0693  22.3587
 12.1498  22.2561
 12.2302  22.0754
 12.3108  22.2062
 12.3913  22.1196
 12.4718  22.2401
 12.5523  22.1847
 12.6328  22.469
 12.7133  22.5972
 12.7938  22.6256
 12.8742  23.0501
 12.9548  23.3969
 13.0353  23.8337
 13.1158  24.4504
 13.1963  25.2426
 13.2768  26.2571
 13.3573  27.3994
 13.4378  28.191
 13.5183  29.0148
 13.5988  29.3686
 13.6793  29.3727
 13.7598  28.8756
 13.8403  28.6644
 13.9208  29.1896
 14.0013  29.0159
 14.0818  26.9943
 14.1623  26.526
 14.2428  26.2084
 14.3233  25.8928
 14.4038  25.7439
 14.4843  25.3737
 14.5648  25.2285
 14.6453  24.9059
 14.7258  24.7672
 14.8063  24.5316
 14.8868  24.5434
 14.9673  24.3919
 15.0478  24.4172
 15.1283  24.3177
 15.2088  24.3597
 15.2892  24.1557
 15.3698  24.1037
 15.4503  24.195
 15.5308  24.2781
 15.6113  24.2121
 15.6918  24.1962
 15.7723  24.2618
 15.8528  24.1368
 15.9332  24.2085
 16.0138  24.2736
 16.0943  24.4166
 16.1748  24.503
 16.2553  25.79
 16.3358  24.6152
 16.4163  24.3284
 16.4967  24.2546
 16.5773  24.2905
 16.6578  24.256
 16.7383  24.1223
 16.8188  24.0594
 16.8992  24.0438
 16.9798  24.0641
 17.0603  23.8646
 17.1408  23.735
 17.2213  23.6744
 17.3017  23.6518
 17.3823  23.7091
 17.4628  23.5922
 17.5433  23.4294
 17.6238  23.5471
 17.7042  23.5297
 17.7847  23.3929
 17.8653  23.1867
 17.9458  23.3372
 18.0263  23.4252
 18.1068  23.4834
 18.1872  23.1884
 18.2678  23.1432
 18.3483  23.1482
 18.4288  23.0785
 18.5093  23.1145
 18.5897  23.0546
 18.6703  23.0926
 18.7508  23.1529
 18.8313  23.1273
 18.9118  23.1234
 18.9922  22.9522
 19.0727  23.1856
 19.1533  23.1098
 19.2338  23.0346
 19.3143  23.1151
 19.3948  23.1284
 19.4752  23.2112
 19.5558  23.2139
 19.6363  23.1537
 19.7168  23.6231
 19.7973  23.4346
 19.8777  23.6978
 19.9582  23.1877
 20.0388  23.1905
 20.1193  23.1448
 20.1998  23.197
 20.2803  23.2369
 20.3607  23.2587
 20.4413  23.3616
 20.5218  23.2658
 20.6023  23.3416
 20.6828  23.4224
 20.7632  23.8039
 20.8438  23.3961
 20.9243  23.4708
 21.0048  23.4313
 21.0853  23.5049
 21.1658  23.4059
 21.2462  23.5592
 21.3268  23.4852
 21.4073  23.4146
 21.4878  23.6921
 21.5683  23.4763
 21.6487  23.628
 21.7293  23.6813
 21.8098  23.7442
 21.8903  23.6857
 21.9708  23.7569
 22.0512  23.862
 22.1318  23.8418
 22.2123  23.8855
 22.2928  23.9796
 22.3733  24.0199
 22.4538  24.2035
 22.5343  24.3279
 22.6148  24.4527
 22.6953  25.0433
 22.7758  24.8183
 22.8563  25.0065
 22.9367  25.6183
 22.9943  25.6757

File: Data_0141.chi
F:\20151113_APS_34IDE\\Brian\Particle1\OCV\Data_0141.tif
2-Theta Angle (Degrees)
Intensity
       2000
 0.07475  0.0000000E+00
 0.15525  0.0000000E+00
 0.23575  0.0000000E+00
 0.31625  0.0000000E+00
 0.39675  0.0000000E+00
 0.47725  0.0000000E+00
 0.55775  0.0000000E+00
 0.63825  0.0000000E+00
 0.71875  0.0000000E+00
 0.79925  0.0000000E+00
 0.87975  0.0000000E+00
 0.96025  0.0000000E+00
 1.04075  0.0000000E+00
 1.12125  0.0000000E+00
 1.20175  0.0000000E+00
 1.28225  0.0000000E+00
 1.36275  0.0000000E+00
 1.44325  0.0000000E+00
 1.52375  0.0000000E+00
 1.60425  0.0000000E+00
 1.68475  0.0000000E+00
 1.76525  0.0000000E+00
 1.84575  0.0000000E+00
 1.92625  0.0000000E+00
 2.00675  0.0000000E+00
 2.08725  0.0000000E+00
 2.16775  0.0000000E+00
 2.24825  0.0000000E+00
 2.32875  0.0000000E+00
 2.40925  0.0000000E+00
 2.48975  0.0000000E+00
 2.57025  0.0000000E+00
 2.65075  0.0000000E+00
 2.73125  0.0000000E+00
 2.81175  0.0000000E+00
 2.89225  35.4777
 2.97275  35.5223
 3.05325  36.5376
 3.13375  34.3194
 3.21425  34.6589
 3.29475  35.7438
 3.37525  34.7868
 3.45575  33.3516
 3.53625  33.7212
 3.61675  33.2901
 3.69725  33.0388
 3.77775  32.7695
 3.85825  33.048
 3.93875  32.5697
 4.01925  32.8002
 4.09975  32.4128
 4.18025  32.0802
 4.26075  32.4247
 4.34125  32.3455
 4.42175  32.5689
 4.50225  32.7912
 4.58275  32.2557
 4.66325  32.8136
 4.74375  32.5945
 4.82425  32.6662
 4.90475  32.9419
 4.98525  32.9534
 5.06575  33.0897
 5.14625  33.385
 5.22675  33.9434
 5.30725  33.9911
 5.38775  34.2093
 5.46825  34.7725
 5.54875  34.7097
 5.62925  35.145
 5.70975  35.1121
 5.79025  35.5537
 5.87075  36.0245
 5.95125  36.6127
 6.03175  36.3821
 6.11225  36.57
 6.19275  36.6739
 6.27325  37.3277
 6.35375  37.9482
 6.43425  38.4835
 6.51475  38.9145
 6.59525  39.5104
 6.67575  40.2056
 6.75625  40.9051
 6.83675  41.4526
 6.91725  42.0079
 6.99775  42.1637
 7.07825  42.6403
 7.15875  42.9979
 7.23925  43.4659
 7.31975  43.5895
 7.40025  43.9802
 7.48075  44.2023
 7.56125  44.4368
 7.64175  44.5952
 7.72225  44.3448
 7.80275  44.185
 7.88325  44.175
 7.96375  43.6362
 8.04425  43.366
 8.12475  42.6302
 8.20525  41.8074
 8.28575  41.1149
 8.36625  40.0367
 8.44675  38.7433
 8.52725  37.503
 8.60775  36.2285
 8.68825  35.2574
 8.76875  33.9655
 8.84925  32.7399
 8.92975  31.6777
 9.01025  30.4434
 9.09075  29.6555
 9.17125  28.8767
 9.25175  28.0334
 9.33225  27.5242
 9.41275  26.8598
 9.49325  26.5011
 9.57375  25.8232
 9.65425  25.3976
 9.73475  25.1675
 9.81525  24.8033
 9.89575  24.3878
 9.97625  24.221
 10.0567  23.9223
 10.1373  23.826
 10.2178  23.5072
 10.2982  23.4614
 10.3788  23.2873
 10.4593  23.0416
 10.5397  23.0949
 10.6203  22.8396
 10.7007  22.6905
 10.7813  22.7302
 10.8618  22.5579
 10.9422  22.4059
 11.0228  22.4293
 11.1033  22.3612
 11.1837  22.1705
 11.2643  22.1505
 11.3447  22.1689
 11.4253  22.3361
 11.5058  22.2204
 11.5862  22.6366
 11.6668  22.2192
 11.7473  22.2715
 11.8277  22.0025
 11.9083  22.1822
 11.9887  22.4918
 12.0693  22.4847
 12.1498  22.4101
 12.2302  22.1779
 12.3108  22.248
 12.3913  22.0934
 12.4718  22.363
 12.5523  22.4787
 12.6328  22.6982
 12.7133  22.6751
 12.7938  22.873
 12.8742  23.1811
 12.9548  23.4338
 13.0353  23.9074
 13.1158  24.5655
 13.1963  25.3888
 13.2768  26.4549
 13.3573  27.432
 13.4378  28.4259
 13.5183  29.2166
 13.5988  29.542
 13.6793  29.4906
 13.7598  29.154
 13.8403  28.6123
 13.9208  28.8556
 14.0013  28.2006
 14.0818  27.0449
 14.1623  26.5853
 14.2428  26.1777
 14.3233  26.023
 14.4038  25.7616
 14.4843  25.3187
 14.5648  25.3253
 14.6453  24.908
 14.7258  24.9007
 14.8063  24.8459
 14.8868  24.6664
 14.9673  24.5938
 15.0478  24.5164
 15.1283  24.3429
 15.2088  24.5884
 15.2892  24.2139
 15.3698  24.2484
 15.4503  24.1625
 15.5308  24.1847
 15.6113  24.2865
 15.6918  24.2261
 15.7723  24.3084
 15.8528  24.2623
 15.9332  24.3103
 16.0138  24.3286
 16.0943  24.5421
 16.1748  24.6637
 16.2553  25.2455
 16.3358  24.602
 16.4163  24.4198
 16.4967  24.3763
 16.5773  24.3104
 16.6578  24.2298
 16.7383  24.179
 16.8188  24.0385
 16.8992  24.0788
 16.9798  24.0514
 17.0603  23.9086
 17.1408  23.868
 17.2213  23.832
 17.3017  23.8373
 17.3823  23.6639
 17.4628  23.7135
 17.5433  23.596
 17.6238  23.5929
 17.7042  23.3742
 17.7847  23.454
 17.8653  23.3795
 17.9458  23.5469
 18.0263  23.5163
 18.1068  23.5562
 18.1872  23.5698
 18.2678  23.2301
 18.3483  23.3826
 18.4288  23.4163
 18.5093  23.2004
 18.5897  23.1605
 18.6703  23.2411
 18.7508  23.224
 18.8313  23.1566
 18.9118  23.1842
 18.9922  23.1495
 19.0727  23.2344
 19.1533  23.077
 19.2338  23.5084
 19.3143  23.1604
 19.3948  23.2721
 19.4752  23.3694
 19.5558  23.2371
 19.6363  23.4437
 19.7168  23.6354
 19.7973  23.4582
 19.8777  23.5611
 19.9582  23.354
 20.0388  23.3134
 20.1193  23.5043
 20.1998  23.3538
 20.2803  23.4034
 20.3607  23.3951
 20.4413  23.3971
 20.5218  23.3866
 20.6023  23.4196
 20.6828  23.4068
 20.7632  23.8022
 20.8438  23.5872
 20.9243  23.4963
 21.0048  23.5717
 21.0853  23.5396
 21.1658  23.447
 21.2462  23.5817
 21.3268  23.5223
 21.4073  23.5572
 21.4878  23.6769
 21.5683  23.6583
 21.6487  23.6504
 21.7293  23.7436
 21.8098  23.8299
 21.8903  23.9067
 21.9708  23.8615
 22.0512  23.9935
 22.1318  23.9759
 22.2123  24.2185
 22.2928  24.1267
 22.3733  24.2597
 22.4538  24.3646
 22.5343  24.4385
 22.6148  24.5912
 22.6953  24.8106
 22.7758  24.8765
 22.8563  25.1076
 22.9367  25.4861
 22.9943  25.771

File: Data_0142.chi
F:\20151113_APS_34IDE\\Brian\Particle1\OCV\Data_0142.tif
2-Theta Angle (Degrees)
Intensity
       2000
 0.07475  0.0000000E+00
 0.15525  0.0000000E+00
 0.23575  0.0000000E+00
 0.31625  0.0000000E+00
 0.39675  0.0000000E+00
 0.47725  0.0000000E+00
 0.55775  0.0000000E+00
 0.63825  0.0000000E+00
 0.71875  0.0000000E+00
 0.79925  0.0000000E+00
 0.87975  0.0000000E+00
 0.96025  0.0000000E+00
 1.04075  0.0000000E+00
 1.12125  0.0000000E+00
 1.20175  0.0000000E+00
 1.28225  0.0000000E+00
 1.36275  0.0000000E+00
 1.44325  0.0000000E+00
 1.52375  0.0000000E+00
 1.60425  0.0000000E+00
 1.68475  0.0000000E+00
 1.76525  0.0000000E+00
 1.84575  0.0000000E+00
 1.92625  0.0000000E+00
 2.00675  0.0000000E+00
 2.08725  0.0000000E+00
 2.16775  0.0000000E+00
 2.24825  0.0000000E+00
 2.32875  0.0000000E+00
 2.40925  0.0000000E+00
 2.48975  0.0000000E+00
 2.57025  0.0000000E+00
 2.65075  0.0000000E+00
 2.73125  0.0000000E+00
 2.81175  0.0000000E+00
 2.89225  34.56
 2.97275  35.8125
 3.05325  35.6684
 3.13375  35.7805
 3.21425  35.4024
 3.29475  34.4776
 3.37525  33.8201
 3.45575  34.0445
 3.53625  34.1871
 3.61675  33.3429
 3.69725  33.1208
 3.77775  33.2159
 3.85825  32.7332
 3.93875  32.0956
 4.01925  32.3334
 4.09975  32.2064
 4.18025  31.9802
 4.26075  32.0645
 4.34125  32.5249
 4.42175  32.4563
 4.50225  32.4769
 4.58275  32.6704
 4.66325  32.8451
 4.74375  32.2856
 4.82425  32.7856
 4.90475  32.5175
 4.98525  32.9271
 5.06575  33.191
 5.14625  33.3941
 5.22675  33.6237
 5.30725  34.1657
 5.38775  34.4202
 5.46825  34.3072
 5.54875  34.4855
 5.62925  34.7888
 5.70975  35.4779
 5.79025  35.537
 5.87075  35.2649
 5.95125  36.2365
 6.03175  36.5544
 6.11225  36.9444
 6.19275  36.8011
 6.27325  37.2815
 6.35375  37.9835
 6.43425  38.6163
 6.51475  39.1238
 6.59525  39.8053
 6.67575  40.2978
 6.75625  40.7651
 6.83675  41.4061
 6.91725  42.0945
 6.99775  42.3332
 7.07825  42.7828
 7.15875  43.3607
 7.23925  43.3864
 7.31975  43.8044
 7.40025  44.0445
 7.48075  44.4972
 7.56125  44.4236
 7.64175  44.5518
 7.72225  44.6856
 7.80275  44.3236
 7.88325  44.1624
 7.96375  43.8243
 8.04425  43.4039
 8.12475  42.591
 8.20525  41.8968
 8.28575  41.3084
 8.36625  40.1918
 8.44675  39.0437
 8.52725  37.673
 8.60775  36.5725
 8.68825  35.4565
 8.76875  33.8664
 8.84925  32.925
 8.92975  31.5283
 9.01025  30.5196
 9.09075  30.0897
 9.17125  28.9575
 9.25175  28.0463
 9.33225  27.438
 9.41275  26.7586
 9.49325  26.3698
 9.57375  25.8769
 9.65425  25.5004
 9.73475  24.9309
 9.81525  24.9068
 9.89575  24.5494
 9.97625  24.1873
 10.0567  24.0017
 10.1373  23.8307
 10.2178  23.6599
 10.2982  23.4127
 10.3788  23.2339
 10.4593  23.1216
 10.5397  23.0355
 10.6203  22.8869
 10.7007  22.8363
 10.7813  22.6238
 10.8618  22.7325
 10.9422  22.5107
 11.0228  22.3813
 11.1033  22.4134
 11.1837  22.2967
 11.2643  22.1916
 11.3447  22.252
 11.4253  22.4456
 11.5058  22.4447
 11.5862  22.5223
 11.6668  22.3647
 11.7473  22.1504
 11.8277  22.2451
 11.9083  22.3051
 11.9887  22.4839
 12.0693  22.3632
 12.1498  22.421
 12.2302  22.0864
 12.3108  22.4708
 12.3913  22.559
 12.4718  22.3932
 12.5523  22.5134
 12.6328  22.5908
 12.7133  22.7222
 12.7938  22.9874
 12.8742  23.2071
 12.9548  23.4774
 13.0353  24.0017
 13.1158  24.7577
 13.1963  25.4434
 13.2768  26.4853
 13.3573  27.585
 13.4378  28.4442
 13.5183  29.2027
 13.5988  29.4833
 13.6793  29.5439
 13.7598  29.0302
 13.8403  28.6638
 13.9208  28.528
 14.0013  28.0375
 14.0818  27.2347
 14.1623  26.7221
 14.2428  26.2362
 14.3233  25.9152
 14.4038  25.7434
 14.4843  25.4255
 14.5648  25.248
 14.6453  25.1128
 14.7258  24.9854
 14.8063  24.9087
 14.8868  24.5803
 14.9673  24.5874
 15.0478  24.4326
 15.1283  24.3383
 15.2088  24.5044
 15.2892  24.2772
 15.3698  24.3513
 15.4503  24.2688
 15.5308  24.2688
 15.6113  24.2821
 15.6918  24.3516
 15.7723  24.3693
 15.8528  24.5667
 15.9332  24.3868
 16.0138  24.5194
 16.0943  24.5089
 16.1748  24.662
 16.2553  25.1577
 16.3358  24.7454
 16.4163  24.4361
 16.4967  24.5847
 16.5773  24.4784
 16.6578  24.3593
 16.7383  24.2444
 16.8188  24.0933
 16.8992  24.1159
 16.9798  24.1719
 17.0603  23.9102
 17.1408  23.9536
 17.2213  24.0228
 17.3017  23.9139
 17.3823  23.7853
 17.4628  23.6465
 17.5433  23.6185
 17.6238  23.6462
 17.7042  23.6498
 17.7847  23.6055
 17.8653  23.5358
 17.9458  23.3393
 18.0263  23.4288
 18.1068  23.5712
 18.1872  23.2698
 18.2678  23.2399
 18.3483  23.3625
 18.4288  23.4176
 18.5093  23.2197
 18.5897  23.2815
 18.6703  23.2162
 18.7508  23.2254
 18.8313  23.2357
 18.9118  23.2961
 18.9922  23.2225
 19.0727  23.3255
 19.1533  23.1552
 19.2338  23.2195
 19.3143  23.3595
 19.3948  23.3514
 19.4752  23.2832
 19.5558  23.2025
 19.6363  23.2387
 19.7168  23.5477
 19.7973  23.3977
 19.8777  23.6337
 19.9582  23.378
 20.0388  23.3078
 20.1193  23.3349
 20.1998  23.3305
 20.2803  23.4273
 20.3607  23.3551
 20.4413  23.4246
 20.5218  23.4241
 20.6023  23.4868
 20.6828  23.6374
 20.7632  23.7678
 20.8438  23.7246
 20.9243  23.697
 21.0048  23.5717
 21.0853  23.613
 21.1658  23.4758
 21.2462  23.5489
 21.3268  23.6071
 21.4073  23.5369
 21.4878  23.7733
 21.5683  23.68
 21.6487  23.7999
 21.7293  23.8911
 21.8098  23.9969
 21.8903  23.9166
 21.9708  23.8444
 22.0512  24.111
 22.1318  24.0778
 22.2123  24.0795
 22.2928  24.1512
 22.3733  24.3274
 22.4538  24.3579
 22.5343  24.5266
 22.6148  24.6116
 22.6953  24.8379
 22.7758  24.7978
 22.8563  25.2381
 22.9367  25.5835
 22.9943  25.7539

File: Data_0143.chi
F:\20151113_APS_34IDE\\Brian\Particle1\OCV\Data_0143.tif
2-Theta Angle (Degrees)
Intensity
       2000
 0.07475  0.0000000E+00
 0.15525  0.0000000E+00
 0.23575  0.0000000E+00
 0.31625  0.0000000E+00
 0.39675  0.0000000E+00
 0.47725  0.0000000E+00
 0.55775  0.0000000E+00
 0.63825  0.0000000E+00
 0.71875  0.0000000E+00
 0.79925  0.0000000E+00
 0.87975  0.0000000E+00
 0.96025  0.0000000E+00
 1.04075  0.0000000E+00
 1.12125  0.0000000E+00
 1.20175  0.0000000E+00
 1.28225  0.0000000E+00
 1.36275  0.0000000E+00
 1.44325  0.0000000E+00
 1.52375  0.0000000E+00
 1.60425  0.0000000E+00
 1.68475  0.0000000E+00
 1.76525  0.0000000E+00
 1.84575  0.0000000E+00
 1.92625  0.0000000E+00
 2.00675  0.0000000E+00
 2.08725  0.0000000E+00
 2.16775  0.0000000E+00
 2.24825  0.0000000E+00
 2.32875  0.0000000E+00
 2.40925  0.0000000E+00
 2.48975  0.0000000E+00
 2.57025  0.0000000E+00
 2.65075  0.0000000E+00
 2.73125  0.0000000E+00
 2.81175  0.0000000E+00
 2.89225  34.9548
 2.97275  38.3307
 3.05325  37.3261
 3.13375  35.092
 3.21425  35.2492
 3.29475  35.1124
 3.37525  35.126
 3.45575  34.6859
 3.53625  33.4716
 3.61675  33.2475
 3.69725  33.0388
 3.77775  33.4414
 3.85825  33.5221
 3.93875  33.2703
 4.01925  33.2213
 4.09975  32.6128
 4.18025  32.395
 4.26075  32.8402
 4.34125  32.1178
 4.42175  32.6757
 4.50225  32.9258
 4.58275  32.7148
 4.66325  33.0496
 4.74375  32.5631
 4.82425  33.0309
 4.90475  32.79
 4.98525  32.8302
 5.06575  33.361
 5.14625  33.5663
 5.22675  34.1145
 5.30725  34.276
 5.38775  34.287
 5.46825  35.0721
 5.54875  34.8239
 5.62925  35.2346
 5.70975  35.5149
 5.79025  35.6994
 5.87075  35.8272
 5.95125  36.6512
 6.03175  36.5745
 6.11225  36.7568
 6.19275  36.6641
 6.27325  37.3746
 6.35375  38.3166
 6.43425  38.6484
 6.51475  39.1447
 6.59525  39.9107
 6.67575  40.3687
 6.75625  40.8777
 6.83675  41.5816
 6.91725  42.1336
 6.99775  42.5181
 7.07825  42.6757
 7.15875  43.1707
 7.23925  43.5766
 7.31975  43.8496
 7.40025  44.1094
 7.48075  44.3442
 7.56125  44.4039
 7.64175  44.5268
 7.72225  44.414
 7.80275  44.399
 7.88325  44.0045
 7.96375  44.2715
 8.04425  43.3957
 8.12475  42.9291
 8.20525  42.2057
 8.28575  41.1118
 8.36625  40.1468
 8.44675  39.0506
 8.52725  37.593
 8.60775  36.2167
 8.68825  35.1563
 8.76875  33.9908
 8.84925  33.1191
 8.92975  31.8978
 9.01025  30.5641
 9.09075  29.9
 9.17125  28.9096
 9.25175  28.2932
 9.33225  27.5203
 9.41275  26.7617
 9.49325  26.4772
 9.57375  26.0904
 9.65425  25.5539
 9.73475  25.2534
 9.81525  25.0584
 9.89575  24.6231
 9.97625  24.4929
 10.0567  24.0612
 10.1373  23.7661
 10.2178  23.6469
 10.2982  23.8003
 10.3788  23.3767
 10.4593  23.4539
 10.5397  23.0748
 10.6203  22.983
 10.7007  22.8656
 10.7813  22.8312
 10.8618  22.6856
 10.9422  22.6651
 11.0228  22.4624
 11.1033  22.5513
 11.1837  22.1853
 11.2643  22.1921
 11.3447  22.3014
 11.4253  22.4828
 11.5058  22.2949
 11.5862  23.1074
 11.6668  22.2411
 11.7473  22.1841
 11.8277  22.342
 11.9083  22.4762
 11.9887  22.3263
 12.0693  22.3371
 12.1498  22.3739
 12.2302  22.1956
 12.3108  22.3577
 12.3913  22.355
 12.4718  22.3622
 12.5523  22.4595
 12.6328  22.7459
 12.7133  22.8201
 12.7938  22.9696
 12.8742  23.215
 12.9548  23.7514
 13.0353  24.001
 13.1158  24.7989
 13.1963  25.5755
 13.2768  26.5423
 13.3573  27.6632
 13.4378  28.5481
 13.5183  29.1459
 13.5988  29.7113
 13.6793  29.7031
 13.7598  29.1872
 13.8403  28.7859
 13.9208  28.6421
 14.0013  27.9494
 14.0818  27.133
 14.1623  26.7651
 14.2428  26.3129
 14.3233  25.9729
 14.4038  25.8336
 14.4843  25.5222
 14.5648  25.3518
 14.6453  25.1744
 14.7258  25.1923
 14.8063  24.8094
 14.8868  24.8662
 14.9673  24.6682
 15.0478  24.6968
 15.1283  24.5372
 15.2088  24.6914
 15.2892  24.302
 15.3698  24.2598
 15.4503  24.2668
 15.5308  24.3758
 15.6113  24.3825
 15.6918  24.4113
 15.7723  24.4388
 15.8528  24.4126
 15.9332  24.482
 16.0138  24.6088
 16.0943  24.5328
 16.1748  24.7951
 16.2553  25.0874
 16.3358  24.8378
 16.4163  24.6314
 16.4967  25.119
 16.5773  24.3133
 16.6578  24.3126
 16.7383  24.2299
 16.8188  24.318
 16.8992  24.1656
 16.9798  24.1975
 17.0603  23.9493
 17.1408  24.0059
 17.2213  24.0876
 17.3017  23.7291
 17.3823  23.8731
 17.4628  23.6937
 17.5433  23.6745
 17.6238  23.7414
 17.7042  23.676
 17.7847  23.5065
 17.8653  23.444
 17.9458  23.4588
 18.0263  23.4761
 18.1068  23.6951
 18.1872  23.2979
 18.2678  23.4354
 18.3483  23.3731
 18.4288  23.3758
 18.5093  23.2291
 18.5897  23.3185
 18.6703  23.2369
 18.7508  23.2051
 18.8313  23.325
 18.9118  23.3222
 18.9922  23.2217
 19.0727  23.3645
 19.1533  23.2743
 19.2338  23.241
 19.3143  23.3115
 19.3948  23.3566
 19.4752  23.3124
 19.5558  23.3566
 19.6363  23.3141
 19.7168  23.6223
 19.7973  23.7244
 19.8777  23.6499
 19.9582  23.37
 20.0388  23.4342
 20.1193  23.414
 20.1998  23.3839
 20.2803  23.4911
 20.3607  23.4076
 20.4413  23.4076
 20.5218  23.3906
 20.6023  23.58
 20.6828  23.5109
 20.7632  23.7614
 20.8438  23.5375
 20.9243  23.5191
 21.0048  23.5699
 21.0853  23.4431
 21.1658  23.5024
 21.2462  23.7055
 21.3268  23.577
 21.4073  23.7001
 21.4878  23.6625
 21.5683  23.6155
 21.6487  23.8524
 21.7293  23.84
 21.8098  23.837
 21.8903  23.9466
 21.9708  23.9799
 22.0512  24.0098
 22.1318  24.1651
 22.2123  24.166
 22.2928  24.2402
 22.3733  24.3323
 22.4538  24.4035
 22.5343  24.5872
 22.6148  24.6944
 22.6953  24.9034
 22.7758  24.9878
 22.8563  25.2662
 22.9367  25.6679
 22.9943  25.8973